ATT_Roll,ATT_Pitch,ATT_Yaw,ATT_RollRate,ATT_PitchRate,ATT_YawRate,ATT_GX,ATT_GY,ATT_GZ,ATSP_RollSP,ATSP_PitchSP,ATSP_YawSP,ATSP_ThrustSP,IMU_AccX,IMU_AccY,IMU_AccZ,IMU_GyroX,IMU_GyroY,IMU_GyroZ,IMU_MagX,IMU_MagY,IMU_MagZ,SENS_BaroPres,SENS_BaroAlt,SENS_BaroTemp,SENS_DiffPres,SENS_DiffPresFilt,LPOS_X,LPOS_Y,LPOS_Z,LPOS_Dist,LPOS_DistR,LPOS_VX,LPOS_VY,LPOS_VZ,LPOS_RLat,LPOS_RLon,LPOS_RAlt,LPOS_PFlg,LPOS_LFlg,LPOS_GFlg,LPOS_EPH,LPOS_EPV,LPSP_X,LPSP_Y,LPSP_Z,LPSP_Yaw,GPS_GPSTime,GPS_Fix,GPS_EPH,GPS_EPV,GPS_Lat,GPS_Lon,GPS_Alt,GPS_VelN,GPS_VelE,GPS_VelD,GPS_Cog,GPS_nSat,GPS_SNR,GPS_N,GPS_J,ATTC_Roll,ATTC_Pitch,ATTC_Yaw,ATTC_Thrust,STAT_MainState,STAT_ArmState,STAT_FailsafeState,STAT_BatRem,STAT_BatWarn,STAT_Landed,RC_Ch0,RC_Ch1,RC_Ch2,RC_Ch3,RC_Ch4,RC_Ch5,RC_Ch6,RC_Ch7,RC_Count,RC_SignalLost,OUT0_Out0,OUT0_Out1,OUT0_Out2,OUT0_Out3,OUT0_Out4,OUT0_Out5,OUT0_Out6,OUT0_Out7,AIRS_IndSpeed,AIRS_TrueSpeed,AIRS_AirTemp,ARSP_RollRateSP,ARSP_PitchRateSP,ARSP_YawRateSP,FLOW_RawX,FLOW_RawY,FLOW_CompX,FLOW_CompY,FLOW_Dist,FLOW_Q,FLOW_SensID,GPOS_Lat,GPOS_Lon,GPOS_Alt,GPOS_VelN,GPOS_VelE,GPOS_VelD,GPOS_EPH,GPOS_EPV,GPSP_NavState,GPSP_Lat,GPSP_Lon,GPSP_Alt,GPSP_Yaw,GPSP_Type,GPSP_LoitR,GPSP_LoitDir,GPSP_PitMin,ESC_count,ESC_nESC,ESC_Conn,ESC_N,ESC_Ver,ESC_Adr,ESC_Volt,ESC_Amp,ESC_RPM,ESC_Temp,ESC_SetP,ESC_SetPRAW,GVSP_VX,GVSP_VY,GVSP_VZ,BATT_V,BATT_VFilt,BATT_C,BATT_Discharged,DIST_Bottom,DIST_BottomRate,DIST_Flags,TELE_RSSI,TELE_RemRSSI,TELE_Noise,TELE_RemNoise,TELE_RXErr,TELE_Fixed,TELE_TXBuf,ESTM_s0,ESTM_s1,ESTM_s2,ESTM_s3,ESTM_s4,ESTM_s5,ESTM_s6,ESTM_s7,ESTM_s8,ESTM_s9,ESTM_nStat,ESTM_statNaN,ESTM_covNaN,ESTM_kGainNaN,PWR_Periph5V,PWR_Servo5V,PWR_RSSI,PWR_UsbOk,PWR_BrickOk,PWR_ServoOk,PWR_PeriphOC,PWR_HipwrOC,VICN_X,VICN_Y,VICN_Z,VICN_Roll,VICN_Pitch,VICN_Yaw,GS0A_s0,GS0A_s1,GS0A_s2,GS0A_s3,GS0A_s4,GS0A_s5,GS0A_s6,GS0A_s7,GS0A_s8,GS0A_s9,GS0A_s10,GS0A_s11,GS0A_s12,GS0A_s13,GS0A_s14,GS0A_s15,GS0B_s0,GS0B_s1,GS0B_s2,GS0B_s3,GS0B_s4,GS0B_s5,GS0B_s6,GS0B_s7,GS0B_s8,GS0B_s9,GS0B_s10,GS0B_s11,GS0B_s12,GS0B_s13,GS0B_s14,GS0B_s15,GS1A_s0,GS1A_s1,GS1A_s2,GS1A_s3,GS1A_s4,GS1A_s5,GS1A_s6,GS1A_s7,GS1A_s8,GS1A_s9,GS1A_s10,GS1A_s11,GS1A_s12,GS1A_s13,GS1A_s14,GS1A_s15,GS1B_s0,GS1B_s1,GS1B_s2,GS1B_s3,GS1B_s4,GS1B_s5,GS1B_s6,GS1B_s7,GS1B_s8,GS1B_s9,GS1B_s10,GS1B_s11,GS1B_s12,GS1B_s13,GS1B_s14,GS1B_s15,TIME_StartTime,VER_Arch,VER_FwGit,PARM_Name,PARM_Value
,,,,,,,,,,,,,,,,,,,,,,,,,,,,,,,,,,,,,,,,,,,,,,,,,,,,,,,,,,,,,,,,,,,,,,,,,,,,,,,,,,,,,,,,,,,,,,,,,,,,,,,,,,,,,,,,,,,,,,,,,,,,,,,,,,,,,,,,,,,,,,,,,,,,,,,,,,,,,,,,,,,,,,,,,,,,,,,,,,,,,,,,,,,,,,,,,,,,,,,,,,,,,,,,,,,,,,,,,,,,,,,,,,,,,,,,,,,,,,,,,,PX4FMU_V1,251760679a4bed86fdb10746062fde2cc23e460f,test,305419904.0
0.0146355228499,-0.0220739040524,-2.28412055969,0.00533582875505,-0.00211599515751,-0.00256474851631,-0.104896873236,-0.0861548259854,-9.56849861145,0.0,-0.00156632135622,-2.30623626709,0.0,-0.104896873236,-0.0861548259854,-9.56849861145,0.0051664672792,-0.00577517971396,-0.00777564570308,-0.130483448505,0.191783815622,0.449380844831,1013.66998291,-3.49554824829,22.8199996948,0.0,0.0,0.0,0.0,0.362592041492,0.0,0.0,0.0,0.0,0.325977325439,0.0,0.0,0.0,10,1,0,20.0,1.01359927654,,,,,,,,,,,,,,,,,,,,-0.0102279279381,0.013605736196,-0.00295507558621,0.0,0,2,0,0.874849975109,0,1,0.0,0.0025641026441,0.0,0.0346534661949,1.0,0.774436116219,-0.998161792755,0.0,7,0,10.0,10.0,10.0,10.0,0.0,0.0,0.0,0.0,,,,-0.0733405426145,0.102543517947,-0.0222652517259,0,0,0.0,0.0,0.300000011921,0,77,,,,,,,,,,,,,,,,,,,,,,,,,,,,,,,,,10.9958095551,11.4963779449,-1.0,-1.0,,,,,,,,,,,,,,,,,,,,,,,,,,,,,,,,,,,,,,,,,,,,,,,,,,,,,,,,,,,,,,,,,,,,,,,,,,,,,,,,,,,,,,,,,,,,,,,,,,,,,,,7011516,PX4FMU_V1,251760679a4bed86fdb10746062fde2cc23e460f,test,305419904.0
0.0145511198789,-0.0222187768668,-2.28474879265,-0.00592947984114,-0.0136434324086,-0.00942892953753,-0.393665581942,0.16573767364,-9.73822116852,0.0,-0.00156632135622,-2.30623626709,0.0,-0.393665581942,0.16573767364,-9.73822116852,-0.00471163634211,-0.0118089867756,-0.00541023816913,-0.0983751341701,0.137688547373,0.428908407688,1013.73999023,-4.07802581787,22.8199996948,0.0,0.0,0.0,0.0,0.362480640411,0.0,0.0,0.0,0.0,0.326444208622,0.0,0.0,0.0,10,1,0,20.0,1.0137193203,,,,,,,,,,,,,,,,,,,,-0.00870792660862,0.0151984496042,-0.00183127040509,0.0,0,2,0,0.863634765148,0,1,0.0,0.0025641026441,0.0,0.0371287129819,1.0,0.77192980051,-0.998161792755,0.0,7,0,10.0,10.0,10.0,10.0,0.0,0.0,0.0,0.0,,,,-0.0729135274887,0.103267721832,-0.0216373987496,-2,-11,0.0159795470536,0.083009660244,0.300000011921,43,77,,,,,,,,,,,,,,,,,,,,,,,,,,,,,,,,,11.0377140045,11.4954528809,-1.0,-1.0,,,,,,,,,,,,,,,,,,,,,,,,,,,,,,,,,,,,,,,,,,,,,,,,,,,,,,,,,,,,,,,,,,,,,,,,,,,,,,,,,,,,,,,,,,,,,,,,,,,,,,,7032497,PX4FMU_V1,251760679a4bed86fdb10746062fde2cc23e460f,test,305419904.0
0.0147566646338,-0.0220553632826,-2.28689265251,0.0126253738999,0.00377354840748,8.86302004801e-05,0.0730711445212,-0.126269489527,-9.52233219147,0.0,-0.00156632135622,-2.30623626709,0.0,0.0730711445212,-0.126269489527,-9.52233219147,0.00954442378134,-0.00208067428321,-0.000498855311889,-0.133235603571,0.112721502781,0.43602925539,1013.69995117,-3.74518537521,22.8199996948,0.0,0.0,0.0,0.0,0.368785977364,0.0,0.0,0.0,0.0,0.328466534615,0.0,0.0,0.0,10,1,0,20.0,1.01383817196,,,,,,,,,,,,,,,,,,,,-0.0112514831126,0.0128279896453,-0.00293745519593,0.0,0,2,0,0.863634765148,0,1,0.0,0.0025641026441,0.0,0.0371287129819,1.0,0.77192980051,-0.998161792755,0.0,7,0,10.0,10.0,10.0,10.0,0.0,0.0,0.0,0.0,,,,-0.0739244967699,0.10245039314,-0.0194944031537,-4,3,0.0400000028312,-0.0358637608588,0.300000011921,0,77,,,,,,,,,,,,,,,,,,,,,,,,,,,,,,,,,11.0377140045,11.4945297241,-1.0,-1.0,,,,,,,,,,,,,,,,,,,,,,,,,,,,,,,,,,,,,,,,,,,,,,,,,,,,,,,,,,,,,,,,,,,,,,,,,,,,,,,,,,,,,,,,,,,,,,,,,,,,,,,7055524,PX4FMU_V1,251760679a4bed86fdb10746062fde2cc23e460f,test,305419904.0
0.014721413143,-0.0221643578261,-2.2819647789,-0.00867629144341,-0.0128197884187,-0.00876981578767,-0.178245976567,-0.0165148917586,-9.77565574646,0.0,-0.00156632135622,-2.30623626709,0.0,-0.178245976567,-0.0165148917586,-9.77565574646,-0.0101171135902,-0.0123657099903,-0.010034782812,-0.0671842098236,0.210092976689,0.434249043465,1013.69995117,-3.74518537521,22.8199996948,0.0,0.0,0.0,0.0,0.371671974659,0.0,0.0,0.0,0.0,0.329395830631,0.0,0.0,0.0,10,1,0,20.0,1.01395857334,,,,,,,,,,,,,,,,,,,,-0.00846435781568,0.0150560811162,-0.00234792171977,0.0,0,2,0,0.863634765148,0,1,0.0,0.0025641026441,0.0,0.0371287129819,0.99816006422,0.774436116219,-0.998161792755,0.0,7,0,10.0,10.0,10.0,10.0,0.0,0.0,0.0,0.0,,,,-0.0737867355347,0.102996222675,-0.0244226269424,0,0,0.0,0.0,0.300000011921,0,77,,,,,,,,,,,,,,,,,,,,,,,,,,,,,,,,,11.0460948944,11.4940814972,-1.0,-1.0,,,,,,,,,,,,,,,,,,,,,,,,,,,,,,,,,,,,,,,,,,,,,,,,,,,,,,,,,,,,,,,,,,,,,,,,,,,,,,,,,,,,,,,,,,,,,,,,,,,,,,,7076991,PX4FMU_V1,251760679a4bed86fdb10746062fde2cc23e460f,test,305419904.0
0.0146929137409,-0.0222469884902,-2.27920889854,0.004080042243,-0.00741243548691,-0.00617886707187,-0.131662115455,-0.25061121583,-9.65829658508,0.0,0.0,-2.30623626709,0.0,-0.131662115455,-0.25061121583,-9.65829658508,0.00391086190939,-0.00722495932132,-0.00990264955908,-0.124979175627,0.176803588867,0.427128195763,1013.70996094,-3.82839655876,22.8199996948,0.0,0.0,0.0,0.0,0.37836933136,0.0,0.0,0.0,0.0,0.331640869379,0.0,0.0,0.0,10,1,0,20.0,1.01407945156,,,,,,,,,,,,,,,,,,,,-0.0100792236626,0.0154246790335,-0.00315181026235,0.0,0,2,0,0.863634765148,0,1,0.0,-0.0,0.0,0.0346534661949,1.0,0.774436116219,-0.998161792755,0.0,7,0,10.0,10.0,10.0,10.0,0.0,0.0,0.0,0.0,,,,-0.073452450335,0.111238949001,-0.0271909348667,-8,3,0.0790130645037,-0.0292609017342,0.300000011921,67,77,,,,,,,,,,,,,,,,,,,,,,,,,,,,,,,,,11.0628566742,11.4932107925,-1.0,-1.0,,,,,,,,,,,,,,,,,,,,,,,,,,,,,,,,,,,,,,,,,,,,,,,,,,,,,,,,,,,,,,,,,,,,,,,,,,,,,,,,,,,,,,,,,,,,,,,,,,,,,,,7099682,PX4FMU_V1,251760679a4bed86fdb10746062fde2cc23e460f,test,305419904.0
0.0147027652711,-0.0222235340625,-2.27540779114,0.00425472436473,-0.00261753518134,-0.00193182053044,0.0688916966319,0.00323385838419,-9.63883113861,0.0,0.0,-2.30623626709,0.0,0.0688916966319,0.00323385838419,-9.63883113861,0.00766214122996,-0.00221829488873,0.00414303410798,-0.119474872947,0.144346430898,0.448490738869,1013.67999268,-3.57876133919,22.8199996948,0.0,0.0,0.0,0.0,0.379769057035,0.0,0.0,0.0,0.0,0.331962764263,0.0,0.0,0.0,10,1,0,20.0,1.01413941383,,,,,,,,,,,,,,,,,,,,-0.0101083386689,0.0147860962898,-0.00435902038589,0.0,0,2,0,0.863634765148,0,1,0.0,-0.0,0.0,0.0346534661949,1.0,0.774436116219,-0.998161792755,0.0,7,0,10.0,10.0,10.0,10.0,0.0,0.0,0.0,0.0,,,,-0.0735017359257,0.111121669412,-0.030991954729,0,0,0.0,0.0,0.300000011921,0,77,,,,,,,,,,,,,,,,,,,,,,,,,,,,,,,,,11.0628566742,11.4923248291,-1.0,-1.0,,,,,,,,,,,,,,,,,,,,,,,,,,,,,,,,,,,,,,,,,,,,,,,,,,,,,,,,,,,,,,,,,,,,,,,,,,,,,,,,,,,,,,,,,,,,,,,,,,,,,,,7120200,PX4FMU_V1,251760679a4bed86fdb10746062fde2cc23e460f,test,305419904.0
0.014848834835,-0.0221585780382,-2.27420568466,0.00477332947776,-0.0028906178195,-0.00373445264995,0.224705949426,-0.150177299976,-9.5752954483,0.0,-0.00156632135622,-2.30623626709,0.0,0.224705949426,-0.150177299976,-9.5752954483,-0.00191085971892,-0.00623775506392,-0.00979931466281,-0.0763580128551,0.164320066571,0.420007348061,1013.75,-4.16123390198,22.8199996948,0.0,0.0,0.0,0.0,0.381718218327,0.0,0.0,0.0,0.0,0.332932412624,0.0,0.0,0.0,10,1,0,20.0,1.01425898075,,,,,,,,,,,,,,,,,,,,-0.0103035187349,0.0137617681175,-0.0042672585696,0.0,0,2,0,0.863634765148,0,1,0.0,0.0025641026441,0.0,0.0346534661949,1.0,0.77192980051,-0.996323525906,0.0,7,0,10.0,10.0,10.0,10.0,0.0,0.0,0.0,0.0,,,,-0.0744845122099,0.102969139814,-0.0321828424931,-2,-8,0.0268351379782,0.0792036801577,0.300000011921,95,77,,,,,,,,,,,,,,,,,,,,,,,,,,,,,,,,,11.0880002975,11.4915332794,-1.0,-1.0,,,,,,,,,,,,,,,,,,,,,,,,,,,,,,,,,,,,,,,,,,,,,,,,,,,,,,,,,,,,,,,,,,,,,,,,,,,,,,,,,,,,,,,,,,,,,,,,,,,,,,,7141586,PX4FMU_V1,251760679a4bed86fdb10746062fde2cc23e460f,test,305419904.0
0.0147242872044,-0.0222948696464,-2.26937556267,-0.00634739175439,-0.0126623837277,-0.00800116825849,0.0271481648088,0.116846747696,-9.66830539703,0.0,0.0,-2.30623626709,0.0,0.0271481648088,0.116846747696,-9.66830539703,-0.00453911721706,-0.0136054661125,-0.00819157902151,-0.0653494372964,0.180964767933,0.428018301725,1013.64996338,-3.32912015915,22.8199996948,0.0,0.0,0.0,0.0,0.386047005653,0.0,0.0,0.0,0.0,0.334776818752,0.0,0.0,0.0,10,1,0,20.0,1.01437938213,,,,,,,,,,,,,,,,,,,,-0.00874404329807,0.0161383021623,-0.00435356190428,0.0,0,2,0,0.863634765148,0,1,0.0,-0.0,0.0,0.0346534661949,1.0,0.774436116219,-0.998161792755,0.0,7,0,10.0,10.0,10.0,10.0,0.0,0.0,0.0,0.0,,,,-0.0736092627048,0.111478410661,-0.0370249114931,0,0,0.0,0.0,0.300000011921,0,77,,,,,,,,,,,,,,,,,,,,,,,,,,,,,,,,,11.0963811874,11.4906759262,-1.0,-1.0,,,,,,,,,,,,,,,,,,,,,,,,,,,,,,,,,,,,,,,,,,,,,,,,,,,,,,,,,,,,,,,,,,,,,,,,,,,,,,,,,,,,,,,,,,,,,,,,,,,,,,,7163655,PX4FMU_V1,251760679a4bed86fdb10746062fde2cc23e460f,test,305419904.0
0.0147813465446,-0.0223768539727,-2.26817107201,0.00652149692178,-0.00151435902808,-0.00458124745637,-0.0370509289205,-0.0598386153579,-9.75907897949,0.0,-0.00156632135622,-2.30623626709,0.0,-0.0370509289205,-0.0598386153579,-9.75907897949,0.00888969935477,0.00635790266097,-0.00338928867131,-0.103879407048,0.172642409801,0.462732434273,1013.64996338,-3.32912015915,22.8199996948,0.0,0.0,0.0,0.0,0.383823662996,0.0,0.0,0.0,0.0,0.331727594137,0.0,0.0,0.0,10,1,0,20.0,1.01449942589,,,,,,,,,,,,,,,,,,,,-0.010493028909,0.0137249445543,-0.00504555366933,0.0,0,2,0,0.863634765148,0,1,0.0,0.0025641026441,0.0,0.0371287129819,0.99816006422,0.774436116219,-0.998161792755,0.0,7,0,10.0,10.0,10.0,10.0,0.0,0.0,0.0,0.0,,,,-0.07419411093,0.104062139988,-0.0382182709873,0,0,0.0,0.0,0.300000011921,0,77,,,,,,,,,,,,,,,,,,,,,,,,,,,,,,,,,11.1382856369,11.4903230667,-1.0,-1.0,,,,,,,,,,,,,,,,,,,,,,,,,,,,,,,,,,,,,,,,,,,,,,,,,,,,,,,,,,,,,,,,,,,,,,,,,,,,,,,,,,,,,,,,,,,,,,,,,,,,,,,7184731,PX4FMU_V1,251760679a4bed86fdb10746062fde2cc23e460f,test,305419904.0
0.0149634266272,-0.0221695508808,-2.26868271828,0.00870800949633,0.000950987741817,-0.0016093167942,0.115173026919,-0.332401573658,-9.62401485443,0.0,-0.00156632135622,-2.30623626709,0.0,0.115173026919,-0.332401573658,-9.62401485443,0.00318186124787,-0.00821640435606,-0.0100298672915,-0.124979175627,0.1584944278,0.450270950794,1013.70996094,-3.82839655876,22.8199996948,0.0,0.0,0.0,0.0,0.385353654623,0.0,0.0,0.0,0.0,0.33241173625,0.0,0.0,0.0,10,1,0,20.0,1.01455950737,,,,,,,,,,,,,,,,,,,,-0.0108951181173,0.0132696917281,-0.0054146531038,0.0,0,2,0,0.863634765148,0,1,0.0,0.0025641026441,0.0,0.0371287129819,0.99816006422,0.774436116219,-0.998161792755,0.0,7,0,10.0,10.0,10.0,10.0,0.0,0.0,0.0,0.0,,,,-0.0751005932689,0.103025540709,-0.0377070046961,0,0,0.0,0.0,0.300000011921,0,77,,,,,,,,,,,,,,,,,,,,,,,,,,,,,,,,,11.1047620773,11.4895858765,-1.0,-1.0,,,,,,,,,,,,,,,,,,,,,,,,,,,,,,,,,,,,,,,,,,,,,,,,,,,,,,,,,,,,,,,,,,,,,,,,,,,,,,,,,,,,,,,,,,,,,,,,,,,,,,,7205924,PX4FMU_V1,251760679a4bed86fdb10746062fde2cc23e460f,test,305419904.0
0.0146823478863,-0.0224125701934,-2.2675151825,-0.00865227822214,-0.00791332311928,-0.00181583873928,-0.312402963638,0.433531343937,-9.86946773529,0.0,-0.00156632135622,-2.30623626709,0.0,-0.312402963638,0.433531343937,-9.86946773529,0.00469777733088,0.00422912789509,0.0229934453964,-0.126813918352,0.202602878213,0.4262380898,1013.69000244,-3.66197371483,22.8199996948,0.0,0.0,0.0,0.0,0.38914257288,0.0,0.0,0.0,0.0,0.333879709244,0.0,0.0,0.0,10,1,0,20.0,1.01468026638,,,,,,,,,,,,,,,,,,,,-0.00845676288009,0.0145800476894,-0.00555863464251,0.0,0,2,0,0.863634765148,0,1,0.0,0.0025641026441,0.0,0.0371287129819,0.99816006422,0.774436116219,-0.998161792755,0.0,7,0,10.0,10.0,10.0,10.0,0.0,0.0,0.0,0.0,,,,-0.0737043023109,0.104240894318,-0.0388734042645,0,0,0.0,0.0,0.300000011921,0,77,,,,,,,,,,,,,,,,,,,,,,,,,,,,,,,,,11.1382856369,11.488858223,-1.0,-1.0,,,,,,,,,,,,,,,,,,,,,,,,,,,,,,,,,,,,,,,,,,,,,,,,,,,,,,,,,,,,,,,,,,,,,,,,,,,,,,,,,,,,,,,,,,,,,,,,,,,,,,,7227591,PX4FMU_V1,251760679a4bed86fdb10746062fde2cc23e460f,test,305419904.0
0.0154872462153,-0.021777883172,-2.26226758957,0.0534758009017,0.0306513719261,0.00942700356245,0.425701767206,-1.14836895466,-9.33117485046,0.0,0.0,-2.30623626709,0.0,0.425701767206,-1.14836895466,-9.33117485046,0.0454465597868,0.0194610320032,-0.0227257087827,-0.111218452454,0.160991117358,0.44493034482,1013.70996094,-3.82839655876,22.8199996948,0.0,0.0,0.0,0.0,0.390839904547,0.0,0.0,0.0,0.0,0.330407440662,0.0,0.0,0.0,10,1,0,20.0,1.01480042934,,,,,,,,,,,,,,,,,,,,-0.0170169714838,0.0101715102792,-0.00803463160992,0.0,0,2,0,0.85901004076,0,1,0.0,-0.0,0.0,0.0346534661949,1.0,0.774436116219,-0.998161792755,0.0,7,0,10.0,10.0,10.0,10.0,0.0,0.0,0.0,0.0,,,,-0.0774239823222,0.108893766999,-0.0441372059286,-12,-10,0.0970031693578,0.0763830989599,0.300000011921,0,77,,,,,,,,,,,,,,,,,,,,,,,,,,,,,,,,,11.1550474167,11.4881820679,-1.0,-1.0,,,,,,,,,,,,,,,,,,,,,,,,,,,,,,,,,,,,,,,,,,,,,,,,,,,,,,,,,,,,,,,,,,,,,,,,,,,,,,,,,,,,,,,,,,,,,,,,,,,,,,,7248287,PX4FMU_V1,251760679a4bed86fdb10746062fde2cc23e460f,test,305419904.0
0.0148884858936,-0.022029267624,-2.26032662392,-0.0526756308973,-0.0272821541876,-0.010251538828,-0.143529385328,1.34224867821,-10.0051908493,0.0,0.0,-2.30623626709,0.0,-0.143529385328,1.34224867821,-10.0051908493,-0.0516707897186,-0.0270391069353,0.0269926916808,-0.122227028012,0.186790406704,0.443150103092,1013.64996338,-3.32912015915,22.8199996948,0.0,0.0,0.0,0.0,0.390839904547,0.0,0.0,0.0,0.0,0.330407440662,0.0,0.0,0.0,10,1,0,20.0,1.01480042934,,,,,,,,,,,,,,,,,,,,-0.0170169714838,0.0101715102792,-0.00803463160992,0.0,0,2,0,0.85901004076,0,1,0.0,-0.0,0.0,0.0346534661949,1.0,0.774436116219,-0.998161792755,0.0,7,0,10.0,10.0,10.0,10.0,0.0,0.0,0.0,0.0,,,,-0.0774239823222,0.108893766999,-0.0441372059286,-12,-10,0.0970031693578,0.0763830989599,0.300000011921,0,77,,,,,,,,,,,,,,,,,,,,,,,,,,,,,,,,,11.1550474167,11.4881820679,-1.0,-1.0,,,,,,,,,,,,,,,,,,,,,,,,,,,,,,,,,,,,,,,,,,,,,,,,,,,,,,,,,,,,,,,,,,,,,,,,,,,,,,,,,,,,,,,,,,,,,,,,,,,,,,,7269846,PX4FMU_V1,251760679a4bed86fdb10746062fde2cc23e460f,test,305419904.0
0.0153599567711,-0.0216097645462,-2.25486707687,-0.0323621965945,-0.004274466075,0.000603152497206,0.176026552916,1.31896400452,-10.130273819,0.0,-0.00156632135622,-2.30623626709,0.0,0.176026552916,1.31896400452,-10.130273819,-0.0317349247634,0.0143846087158,0.0150175429881,-0.0947056040168,0.136024072766,0.444040209055,1013.63000488,-3.1626894474,22.8199996948,0.0,0.0,0.0,0.0,0.390034288168,0.0,0.0,0.0,0.0,0.33092457056,0.0,0.0,0.0,10,1,0,20.0,1.0152207613,,,,,,,,,,,,,,,,,,,,-0.00582782784477,0.0135857770219,-0.00781880598515,0.0,0,2,0,0.85901004076,0,1,0.0,0.0025641026441,0.0,0.0371287129819,0.99816006422,0.774436116219,-0.998161792755,0.0,7,0,10.0,10.0,10.0,10.0,0.0,0.0,0.0,0.0,,,,-0.0771916434169,0.100231513381,-0.0515222139657,15,-3,-0.135568097234,0.0295625012368,0.300000011921,43,77,,,,,,,,,,,,,,,,,,,,,,,,,,,,,,,,,11.4483804703,11.4864263535,-1.0,-1.0,,,,,,,,,,,,,,,,,,,,,,,,,,,,,,,,,,,,,,,,,,,,,,,,,,,,,,,,,,,,,,,,,,,,,,,,,,,,,,,,,,,,,,,,,,,,,,,,,,,,,,,7333949,PX4FMU_V1,251760679a4bed86fdb10746062fde2cc23e460f,test,305419904.0
0.0155504308641,-0.0218325983733,-2.25219464302,-0.0170306768268,-0.0192634686828,-0.00201406423002,-0.798998832703,0.299165099859,-9.76166725159,0.0,-0.00156632135622,-2.30623626709,0.0,-0.798998832703,0.299165099859,-9.76166725159,-0.0527618601918,-0.00601050397381,0.0133262025192,-0.10846632719,0.141849726439,0.435139149427,1013.70996094,-3.82839655876,22.8299999237,0.0,0.0,0.0,0.0,0.3883202672,0.0,0.0,0.0,0.0,0.330046743155,0.0,0.0,0.0,10,1,0,20.0,1.01534116268,,,,,,,,,,,,,,,,,,,,-0.00794740580022,0.0156793557107,-0.00782760418952,0.0,0,2,0,0.85901004076,0,1,0.0,0.0025641026441,0.0,0.0371287129819,1.0,0.77192980051,-0.998161792755,0.0,7,0,10.0,10.0,10.0,10.0,0.0,0.0,0.0,0.0,,,,-0.0781645700336,0.101346962154,-0.054198089987,-10,-5,0.0974277034402,0.0468004718423,0.300000011921,47,77,,,,,,,,,,,,,,,,,,,,,,,,,,,,,,,,,11.4902858734,11.4864253998,-1.0,-1.0,,,,,,,,,,,,,,,,,,,,,,,,,,,,,,,,,,,,,,,,,,,,,,,,,,,,,,,,,,,,,,,,,,,,,,,,,,,,,,,,,,,,,,,,,,,,,,,,,,,,,,,7355840,PX4FMU_V1,251760679a4bed86fdb10746062fde2cc23e460f,test,305419904.0
0.0158353056759,-0.0216232575476,-2.24831151962,0.035537533462,-0.0120181106031,-0.00143274106085,0.0193496067077,-1.4244017601,-9.46633243561,0.0,-0.00156632135622,-2.30623626709,0.0,0.0193496067077,-1.4244017601,-9.46633243561,0.0311109665781,-0.0223555229604,-0.0273340418935,-0.125896558166,0.178468048573,0.427128195763,1013.70996094,-3.82839655876,22.8299999237,0.0,0.0,0.0,0.0,0.391454786062,0.0,0.0,0.0,0.0,0.328999757767,0.0,0.0,0.0,10,1,0,20.0,1.01546168327,,,,,,,,,,,,,,,,,,,,-0.0149703901261,0.0146016180515,-0.00849744863808,0.0,0,2,0,0.85901004076,0,1,0.0,0.0025641026441,0.0,0.0371287129819,0.99816006422,0.774436116219,-0.996323525906,0.0,7,0,10.0,10.0,10.0,10.0,0.0,0.0,0.0,0.0,,,,-0.0796193182468,0.100302033126,-0.0580823980272,0,0,0.0,0.0,0.300000011921,0,77,,,,,,,,,,,,,,,,,,,,,,,,,,,,,,,,,11.4819049835,11.4864206314,-1.0,-1.0,,,,,,,,,,,,,,,,,,,,,,,,,,,,,,,,,,,,,,,,,,,,,,,,,,,,,,,,,,,,,,,,,,,,,,,,,,,,,,,,,,,,,,,,,,,,,,,,,,,,,,,7376338,PX4FMU_V1,251760679a4bed86fdb10746062fde2cc23e460f,test,305419904.0
0.0152254058048,-0.0220297332853,-2.24831056595,-0.0264500081539,-0.0175892021507,-0.00131718069315,0.0282524079084,0.886743545532,-10.0194921494,0.0,-0.00156632135622,-2.30623626709,0.0,0.0282524079084,0.886743545532,-10.0194921494,-0.00264193303883,-0.00712396018207,0.0189819764346,-0.118557490408,0.16931347549,0.417337030172,1013.70996094,-3.82839655876,22.8299999237,0.0,0.0,0.0,0.0,0.393274962902,0.0,0.0,0.0,0.0,0.331649452448,0.0,0.0,0.0,10,1,0,20.0,1.01552164555,,,,,,,,,,,,,,,,,,,,-0.00651557510719,0.0155900400132,-0.00851448345929,0.0,0,2,0,0.85901004076,0,1,0.0,0.0025641026441,0.0,0.0346534661949,1.0,0.774436116219,-0.998161792755,0.0,7,0,10.0,10.0,10.0,10.0,0.0,0.0,0.0,0.0,,,,-0.0765698179603,0.102334186435,-0.0580804012716,4,10,-0.0398677289486,-0.0975000113249,0.300000011921,47,77,,,,,,,,,,,,,,,,,,,,,,,,,,,,,,,,,11.4902858734,11.4864282608,-1.0,-1.0,,,,,,,,,,,,,,,,,,,,,,,,,,,,,,,,,,,,,,,,,,,,,,,,,,,,,,,,,,,,,,,,,,,,,,,,,,,,,,,,,,,,,,,,,,,,,,,,,,,,,,,7397734,PX4FMU_V1,251760679a4bed86fdb10746062fde2cc23e460f,test,305419904.0
0.0154800461605,-0.0221757218242,-2.24944424629,-0.0233610011637,-0.0228895060718,-0.0233056563884,-0.053578093648,-0.00224056467414,-9.55821609497,0.0,-0.00156632135622,-2.30623626709,0.0,-0.053578093648,-0.00224056467414,-9.55821609497,-0.0544918328524,-0.0363022200763,-0.0295622684062,-0.116722755134,0.150172069669,0.411996394396,1013.7199707,-3.91160678864,22.8400001526,0.0,0.0,0.0,0.0,0.399553507566,0.0,0.0,0.0,0.0,0.332877218723,0.0,0.0,0.0,10,1,0,20.0,1.01564157009,,,,,,,,,,,,,,,,,,,,-0.00708146952093,0.0163739286363,-0.00504672527313,0.0,0,2,0,0.85901004076,0,1,0.0,0.0025641026441,0.0,0.0371287129819,0.99816006422,0.774436116219,-0.998161792755,0.0,7,0,10.0,10.0,10.0,10.0,0.0,0.0,0.0,0.0,,,,-0.0778338462114,0.103063799441,-0.0569504871964,0,0,0.0,0.0,0.300000011921,0,77,,,,,,,,,,,,,,,,,,,,,,,,,,,,,,,,,11.4819049835,11.4864273071,-1.0,-1.0,,,,,,,,,,,,,,,,,,,,,,,,,,,,,,,,,,,,,,,,,,,,,,,,,,,,,,,,,,,,,,,,,,,,,,,,,,,,,,,,,,,,,,,,,,,,,,,,,,,,,,,7420078,PX4FMU_V1,251760679a4bed86fdb10746062fde2cc23e460f,test,305419904.0
0.0151752959937,-0.0223971046507,-2.24795198441,0.0203260648996,0.00679337698966,0.0157720651478,-0.314403235912,-0.219970315695,-9.84976577759,0.0,-0.00156632135622,-2.30623626709,0.0,-0.314403235912,-0.219970315695,-9.84976577759,0.048797570169,0.0324809700251,0.0116317551583,-0.104796789587,0.148507609963,0.423567771912,1013.72998047,-3.99481654167,22.8400001526,0.0,0.0,0.0,0.0,0.404660612345,0.0,0.0,0.0,0.0,0.331774115562,0.0,0.0,0.0,10,1,0,20.0,1.01576197147,,,,,,,,,,,,,,,,,,,,-0.0125642130151,0.0126591231674,-0.0111319962889,0.0,0,2,0,0.85901004076,0,1,0.0,0.0025641026441,0.0,0.0371287129819,0.99816006422,0.774436116219,-0.998161792755,0.0,7,0,10.0,10.0,10.0,10.0,0.0,0.0,0.0,0.0,,,,-0.0763217359781,0.104171253741,-0.0584412403405,0,0,0.0,0.0,0.300000011921,0,77,,,,,,,,,,,,,,,,,,,,,,,,,,,,,,,,,11.4902858734,11.4864263535,-1.0,-1.0,,,,,,,,,,,,,,,,,,,,,,,,,,,,,,,,,,,,,,,,,,,,,,,,,,,,,,,,,,,,,,,,,,,,,,,,,,,,,,,,,,,,,,,,,,,,,,,,,,,,,,,7440905,PX4FMU_V1,251760679a4bed86fdb10746062fde2cc23e460f,test,305419904.0
0.0153748514131,-0.0222066622227,-2.24215292931,-0.0232303366065,-0.0259528700262,-0.0230417922139,0.360873222351,3.85846942663e-05,-9.56964683533,0.0,-0.00156632135622,-2.30623626709,0.0,0.360873222351,3.85846942663e-05,-9.56964683533,-0.0548544861376,-0.0584844015539,-0.0168272387236,-0.0937882438302,0.171810179949,0.433358937502,1013.69995117,-3.74518537521,22.8299999237,0.0,0.0,0.0,0.0,0.408755749464,0.0,0.0,0.0,0.0,0.33864825964,0.0,0.0,0.0,10,1,0,20.0,1.01588249207,,,,,,,,,,,,,,,,,,,,-0.00703749293461,0.0167927183211,-0.00617984682322,0.0,0,2,0,0.857617080212,0,1,0.0,0.0025641026441,0.0,0.0371287129819,0.99816006422,0.774436116219,-0.998161792755,0.0,7,0,10.0,10.0,10.0,10.0,0.0,0.0,0.0,0.0,,,,-0.0773648992181,0.103221878409,-0.0642407685518,0,0,0.0,0.0,0.300000011921,0,77,,,,,,,,,,,,,,,,,,,,,,,,,,,,,,,,,11.4819049835,11.4864215851,-1.0,-1.0,,,,,,,,,,,,,,,,,,,,,,,,,,,,,,,,,,,,,,,,,,,,,,,,,,,,,,,,,,,,,,,,,,,,,,,,,,,,,,,,,,,,,,,,,,,,,,,,,,,,,,,7462164,PX4FMU_V1,251760679a4bed86fdb10746062fde2cc23e460f,test,305419904.0
0.0150194214657,-0.0226851720363,-2.24276566505,0.0200451388955,0.0174527447671,0.00699081225321,0.0525028929114,-0.108194410801,-9.80841827393,0.0,-0.00156632135622,-2.30623626709,0.0,0.0525028929114,-0.108194410801,-9.80841827393,0.044885225594,0.0488868206739,-0.00463595800102,-0.113970600069,0.14767536521,0.434249043465,1013.63995361,-3.2459051609,22.8299999237,0.0,0.0,0.0,0.0,0.407324999571,0.0,0.0,0.0,0.0,0.330468535423,0.0,0.0,0.0,10,1,0,20.0,1.01600193977,,,,,,,,,,,,,,,,,,,,-0.0124316215515,0.0114609664306,-0.0105928136036,0.0,0,2,0,0.857617080212,0,1,0.0,0.0025641026441,0.0,0.0371287129819,1.0,0.77192980051,-0.996323525906,0.0,7,0,10.0,10.0,10.0,10.0,0.0,0.0,0.0,0.0,,,,-0.0755827203393,0.105614028871,-0.0636279433966,0,0,0.0,0.0,0.300000011921,0,77,,,,,,,,,,,,,,,,,,,,,,,,,,,,,,,,,11.4819049835,11.4864206314,-1.0,-1.0,,,,,,,,,,,,,,,,,,,,,,,,,,,,,,,,,,,,,,,,,,,,,,,,,,,,,,,,,,,,,,,,,,,,,,,,,,,,,,,,,,,,,,,,,,,,,,,,,,,,,,,7484237,PX4FMU_V1,251760679a4bed86fdb10746062fde2cc23e460f,test,305419904.0
0.0153378332034,-0.0223987996578,-2.24025058746,-0.00769988680258,-0.0210352335125,-0.0146774537861,0.255131810904,-0.36137509346,-9.55387973785,0.0,-0.00156632135622,-2.30623626709,0.0,0.255131810904,-0.36137509346,-9.55387973785,-0.0363360382617,-0.052492942661,-0.0106894243509,-0.101127289236,0.178468048573,0.442259997129,1013.7199707,-3.91160678864,22.8500003815,0.0,0.0,0.0,0.0,0.405537247658,0.0,0.0,0.0,0.0,0.333527982235,0.0,0.0,0.0,10,1,0,20.0,1.01606273651,,,,,,,,,,,,,,,,,,,,-0.00903430115432,0.0162784475833,-0.00772000756115,0.0,0,2,0,0.857617080212,0,1,0.0,0.0025641026441,0.0,0.0371287129819,1.0,0.77192980051,-0.996323525906,0.0,7,0,10.0,10.0,10.0,10.0,0.0,0.0,0.0,0.0,,,,-0.0771945118904,0.104183599353,-0.0661441683769,0,16,-0.00186041370034,-0.0760767161846,0.300000011921,79,77,,,,,,,,,,,,,,,,,,,,,,,,,,,,,,,,,11.4148569107,11.4863195419,-1.0,-1.0,,,,,,,,,,,,,,,,,,,,,,,,,,,,,,,,,,,,,,,,,,,,,,,,,,,,,,,,,,,,,,,,,,,,,,,,,,,,,,,,,,,,,,,,,,,,,,,,,,,,,,,7505352,PX4FMU_V1,251760679a4bed86fdb10746062fde2cc23e460f,test,305419904.0
0.0147166689858,-0.0230773855001,-2.23807525635,-0.0127950822935,-0.016892971471,-0.00137208029628,-0.600219786167,0.426435947418,-9.78111171722,0.0,0.0,-2.30623626709,0.0,-0.600219786167,0.426435947418,-9.78111171722,0.0159418340772,0.0117351245135,0.00573710398749,-0.0846144407988,0.186790406704,0.438699603081,1013.69995117,-3.74518537521,22.8500003815,0.0,0.0,0.0,0.0,0.408464968204,0.0,0.0,0.0,0.0,0.331980109215,0.0,0.0,0.0,10,1,0,20.0,1.0161832571,,,,,,,,,,,,,,,,,,,,-0.00790077634156,0.0171969309449,-0.010043811053,0.0,0,2,0,0.857617080212,0,1,0.0,-0.0,0.0,0.0346534661949,1.0,0.774436116219,-0.998161792755,0.0,7,0,10.0,10.0,10.0,10.0,0.0,0.0,0.0,0.0,,,,-0.0735702887177,0.115391120315,-0.0683308243752,-1,-38,0.00603805482388,0.17300029099,0.300000011921,51,77,,,,,,,,,,,,,,,,,,,,,,,,,,,,,,,,,11.3729524612,11.4860925674,-1.0,-1.0,,,,,,,,,,,,,,,,,,,,,,,,,,,,,,,,,,,,,,,,,,,,,,,,,,,,,,,,,,,,,,,,,,,,,,,,,,,,,,,,,,,,,,,,,,,,,,,,,,,,,,,7526558,PX4FMU_V1,251760679a4bed86fdb10746062fde2cc23e460f,test,305419904.0
0.0155720366165,-0.0223174542189,-2.23417282104,0.0284082684666,0.0148031907156,-0.0112434849143,0.388320863247,-0.678317904472,-9.20376014709,0.0,-0.00156632135622,-2.30623626709,0.0,0.388320863247,-0.678317904472,-9.20376014709,-0.00103500962723,-0.0146082835272,-0.023700915277,-0.104796789587,0.165152296424,0.431578755379,1013.69995117,-3.74518537521,22.8500003815,0.0,0.0,0.0,0.0,0.410897403955,0.0,0.0,0.0,0.0,0.332327544689,0.0,0.0,0.0,10,1,0,20.0,1.01630365849,,,,,,,,,,,,,,,,,,,,-0.013886757195,0.0115670179948,-0.00914703309536,0.0,0,2,0,0.857617080212,0,1,0.0,0.0025641026441,0.0,0.0371287129819,0.99816006422,0.774436116219,-0.998161792755,0.0,7,0,10.0,10.0,10.0,10.0,0.0,0.0,0.0,0.0,,,,-0.0784129500389,0.103780254722,-0.072223700583,0,0,0.0,0.0,0.300000011921,0,77,,,,,,,,,,,,,,,,,,,,,,,,,,,,,,,,,11.389714241,11.4858913422,-1.0,-1.0,,,,,,,,,,,,,,,,,,,,,,,,,,,,,,,,,,,,,,,,,,,,,,,,,,,,,,,,,,,,,,,,,,,,,,,,,,,,,,,,,,,,,,,,,,,,,,,,,,,,,,,7548747,PX4FMU_V1,251760679a4bed86fdb10746062fde2cc23e460f,test,305419904.0
0.0148509321734,-0.0230183657259,-2.23192930222,-0.0405860170722,-0.0417731367052,-0.00470262905583,-0.704028606415,0.514633893967,-9.99482345581,0.0,0.0,-2.30623626709,0.0,-0.704028606415,0.514633893967,-9.99482345581,-0.0286946874112,-0.029516460374,0.0050144828856,-0.0277368538082,0.186790406704,0.432468831539,1013.7699585,-4.32764863968,22.8500003815,0.0,0.0,0.0,0.0,0.416963934898,0.0,0.0,0.0,0.0,0.334521770477,0.0,0.0,0.0,10,1,0,20.0,1.01642417908,,,,,,,,,,,,,,,,,,,,-0.00437521887943,0.0203929934651,-0.0104663185775,0.0,0,2,0,0.857617080212,0,1,0.0,-0.0,0.0,0.0346534661949,1.0,0.774436116219,-0.998161792755,0.0,7,0,10.0,10.0,10.0,10.0,0.0,0.0,0.0,0.0,,,,-0.0742415487766,0.115096054971,-0.0744780823588,6,0,-0.0619670599699,0.00241587311029,0.300000011921,0,77,,,,,,,,,,,,,,,,,,,,,,,,,,,,,,,,,11.3813333511,11.485786438,-1.0,-1.0,,,,,,,,,,,,,,,,,,,,,,,,,,,,,,,,,,,,,,,,,,,,,,,,,,,,,,,,,,,,,,,,,,,,,,,,,,,,,,,,,,,,,,,,,,,,,,,,,,,,,,,7570142,PX4FMU_V1,251760679a4bed86fdb10746062fde2cc23e460f,test,305419904.0
0.0154534764588,-0.0224921982735,-2.22736430168,0.0473777316511,0.0364277400076,0.000378350261599,0.432802498341,-0.641436576843,-9.3799571991,0.0,-0.00156632135622,-2.30623626709,0.0,0.432802498341,-0.641436576843,-9.3799571991,0.0413060709834,0.0326648503542,-0.0128495711833,-0.10296202451,0.192616045475,0.425347983837,1013.70996094,-3.82839655876,22.8500003815,0.0,0.0,0.0,0.0,0.420851111412,0.0,0.0,0.0,0.0,0.334205627441,0.0,0.0,0.0,10,1,0,20.0,1.01654446125,,,,,,,,,,,,,,,,,,,,-0.0162826217711,0.00886992737651,-0.0119115943089,0.0,0,2,0,0.857617080212,0,1,0.0,0.0025641026441,0.0,0.0371287129819,0.99816006422,0.774436116219,-0.998161792755,0.0,7,0,10.0,10.0,10.0,10.0,0.0,0.0,0.0,0.0,,,,-0.0778732001781,0.104657948017,-0.079032279551,-9,11,0.0825000032783,-0.100769639015,0.300000011921,0,77,,,,,,,,,,,,,,,,,,,,,,,,,,,,,,,,,11.3813333511,11.4855775833,-1.0,-1.0,,,,,,,,,,,,,,,,,,,,,,,,,,,,,,,,,,,,,,,,,,,,,,,,,,,,,,,,,,,,,,,,,,,,,,,,,,,,,,,,,,,,,,,,,,,,,,,,,,,,,,,7592585,PX4FMU_V1,251760679a4bed86fdb10746062fde2cc23e460f,test,305419904.0
0.0152737954631,-0.0227129906416,-2.22771549225,-0.0387787595391,-0.0439585112035,-0.0156691800803,0.0093646235764,0.0291040595621,-9.88441562653,0.0,-0.00156632135622,-2.30623626709,0.0,0.0093646235764,0.0291040595621,-9.88441562653,-0.058596663177,-0.0610867030919,-0.00395855493844,-0.129566058517,0.178468048573,0.427128195763,1013.7199707,-3.91160678864,22.8500003815,0.0,0.0,0.0,0.0,0.422583073378,0.0,0.0,0.0,0.0,0.340023607016,0.0,0.0,0.0,10,1,0,20.0,1.01660442352,,,,,,,,,,,,,,,,,,,,-0.00496511533856,0.0194636229426,-0.00945173483342,0.0,0,2,0,0.857617080212,0,1,0.0,0.0025641026441,0.0,0.0371287129819,0.99816006422,0.774436116219,-0.998161792755,0.0,7,0,10.0,10.0,10.0,10.0,0.0,0.0,0.0,0.0,,,,-0.0769719555974,0.105761669576,-0.0786807462573,0,0,0.0,0.0,0.300000011921,0,77,,,,,,,,,,,,,,,,,,,,,,,,,,,,,,,,,11.389714241,11.4853782654,-1.0,-1.0,,,,,,,,,,,,,,,,,,,,,,,,,,,,,,,,,,,,,,,,,,,,,,,,,,,,,,,,,,,,,,,,,,,,,,,,,,,,,,,,,,,,,,,,,,,,,,,,,,,,,,,7613256,PX4FMU_V1,251760679a4bed86fdb10746062fde2cc23e460f,test,305419904.0
0.0149058923125,-0.023119840771,-2.23132705688,0.022762414068,0.0124398451298,0.012372742407,-0.107479378581,0.235907018185,-10.0000019073,0.0,-0.00156632135622,-2.30623626709,0.0,-0.107479378581,0.235907018185,-10.0000019073,0.0636218339205,0.0504277125001,0.011265351437,-0.140574634075,0.14517866075,0.4262380898,1013.64996338,-3.32912015915,22.8500003815,0.0,0.0,0.0,0.0,0.426517486572,0.0,0.0,0.0,0.0,0.336492657661,0.0,0.0,0.0,10,1,0,20.0,1.01672434807,,,,,,,,,,,,,,,,,,,,-0.0127226449549,0.0123959928751,-0.0131161566824,0.0,0,2,0,0.857617080212,0,1,0.0,0.0025641026441,0.0,0.0371287129819,0.99816006422,0.774436116219,-0.998161792755,0.0,7,0,10.0,10.0,10.0,10.0,0.0,0.0,0.0,0.0,,,,-0.0751040875912,0.107793644071,-0.0750683024526,0,0,0.0,0.0,0.300000011921,0,77,,,,,,,,,,,,,,,,,,,,,,,,,,,,,,,,,11.3813333511,11.4851617813,-1.0,-1.0,,,,,,,,,,,,,,,,,,,,,,,,,,,,,,,,,,,,,,,,,,,,,,,,,,,,,,,,,,,,,,,,,,,,,,,,,,,,,,,,,,,,,,,,,,,,,,,,,,,,,,,7634679,PX4FMU_V1,251760679a4bed86fdb10746062fde2cc23e460f,test,305419904.0
0.0156113402918,-0.0224987287074,-2.22877693176,-0.014741871506,-0.0227515213192,-0.0225635096431,0.362000674009,-0.290458321571,-9.47237873077,0.0,-0.00156632135622,-2.30623626709,0.0,0.362000674009,-0.290458321571,-9.47237873077,-0.0567685291171,-0.0643137395382,-0.0222330875695,-0.061679918319,0.195112764835,0.429798513651,1013.64996338,-3.32912015915,22.8500003815,0.0,0.0,0.0,0.0,0.423846542835,0.0,0.0,0.0,0.0,0.339397609234,0.0,0.0,0.0,10,1,0,20.0,1.01684522629,,,,,,,,,,,,,,,,,,,,-0.00830823462456,0.0165673755109,-0.0082586593926,0.0,0,2,0,0.856635391712,0,1,0.0,0.0025641026441,0.0,0.0371287129819,0.99816006422,0.774436116219,-0.998161792755,0.0,7,0,10.0,10.0,10.0,10.0,0.0,0.0,0.0,0.0,,,,-0.078651368618,0.104689836502,-0.0776212364435,0,0,0.0,0.0,0.300000011921,0,77,,,,,,,,,,,,,,,,,,,,,,,,,,,,,,,,,11.3813333511,11.4849538803,-1.0,-1.0,,,,,,,,,,,,,,,,,,,,,,,,,,,,,,,,,,,,,,,,,,,,,,,,,,,,,,,,,,,,,,,,,,,,,,,,,,,,,,,,,,,,,,,,,,,,,,,,,,,,,,,7657246,PX4FMU_V1,251760679a4bed86fdb10746062fde2cc23e460f,test,305419904.0
0.014789362438,-0.0233328994364,-2.22908616066,-0.0145333372056,-0.0206385161728,0.0133503777906,-0.802823901176,0.572016596794,-9.75435829163,0.0,-0.00156632135622,-2.30623626709,0.0,-0.802823901176,0.572016596794,-9.75435829163,0.0251123476774,0.0171791128814,0.0264093838632,-0.121309638023,0.155165478587,0.429798513651,1013.69995117,-3.74518537521,22.859998703,0.0,0.0,0.0,0.0,0.427486658096,0.0,0.0,0.0,0.0,0.335988134146,0.0,0.0,0.0,10,1,0,20.0,1.01696491241,,,,,,,,,,,,,,,,,,,,-0.00780070945621,0.0168348345906,-0.0135989710689,0.0,0,2,0,0.856635391712,0,1,0.0,0.0025641026441,0.0,0.0371287129819,0.99816006422,0.774436116219,-0.998161792755,0.0,7,0,10.0,10.0,10.0,10.0,0.0,0.0,0.0,0.0,,,,-0.0745387971401,0.108860224485,-0.0773094296455,-2,0,0.0218016244471,0.000940116529819,0.300000011921,0,77,,,,,,,,,,,,,,,,,,,,,,,,,,,,,,,,,11.3813333511,11.4848499298,-1.0,-1.0,,,,,,,,,,,,,,,,,,,,,,,,,,,,,,,,,,,,,,,,,,,,,,,,,,,,,,,,,,,,,,,,,,,,,,,,,,,,,,,,,,,,,,,,,,,,,,,,,,,,,,,7678931,PX4FMU_V1,251760679a4bed86fdb10746062fde2cc23e460f,test,305419904.0
0.0157502479851,-0.0224945563823,-2.22709751129,0.0192277822644,0.0106331752613,-0.0223034266382,0.451573073864,-0.715045809746,-9.21363162994,0.0,-0.00156632135622,-2.30623626709,0.0,0.451573073864,-0.715045809746,-9.21363162994,-0.022118113935,-0.0266248583794,-0.0319319032133,-0.102044671774,0.157662183046,0.428018301725,1013.69000244,-3.66197371483,22.859998703,0.0,0.0,0.0,0.0,0.429147481918,0.0,0.0,0.0,0.0,0.339409440756,0.0,0.0,0.0,10,1,0,20.0,1.01708555222,,,,,,,,,,,,,,,,,,,,-0.012816272676,0.0122248008847,-0.00854980945587,0.0,0,2,0,0.856635391712,0,1,0.0,0.0025641026441,0.0,0.0371287129819,0.99816006422,0.774436116219,-0.998161792755,0.0,7,0,10.0,10.0,10.0,10.0,0.0,0.0,0.0,0.0,,,,-0.0793589353561,0.104670114815,-0.0793021544814,0,0,0.0,0.0,0.300000011921,0,77,,,,,,,,,,,,,,,,,,,,,,,,,,,,,,,,,11.3813333511,11.4846429825,-1.0,-1.0,,,,,,,,,,,,,,,,,,,,,,,,,,,,,,,,,,,,,,,,,,,,,,,,,,,,,,,,,,,,,,,,,,,,,,,,,,,,,,,,,,,,,,,,,,,,,,,,,,,,,,,7700573,PX4FMU_V1,251760679a4bed86fdb10746062fde2cc23e460f,test,305419904.0
0.0149625111371,-0.0232888516039,-2.22634267807,-0.0338860936463,-0.0423843339086,0.00229267124087,-0.74736571312,0.374439328909,-9.98952388763,0.0,-0.00156632135622,-2.30623626709,0.0,-0.74736571312,0.374439328909,-9.98952388763,-0.0140617704019,-0.0248960927129,0.0168320573866,-0.0974577516317,0.164320066571,0.438699603081,1013.72998047,-3.99481654167,22.859998703,0.0,0.0,0.0,0.0,0.430513828993,0.0,0.0,0.0,0.0,0.339984893799,0.0,0.0,0.0,10,1,0,20.0,1.0171456337,,,,,,,,,,,,,,,,,,,,-0.00540016964078,0.019633391872,-0.0123520744964,0.0,0,2,0,0.856635391712,0,1,0.0,0.0025641026441,0.0,0.0371287129819,0.99816006422,0.774436116219,-0.998161792755,0.0,7,0,10.0,10.0,10.0,10.0,0.0,0.0,0.0,0.0,,,,-0.075425863266,0.108641773462,-0.0800544917583,0,0,0.0,0.0,0.300000011921,0,77,,,,,,,,,,,,,,,,,,,,,,,,,,,,,,,,,11.3813333511,11.4844369888,-1.0,-1.0,,,,,,,,,,,,,,,,,,,,,,,,,,,,,,,,,,,,,,,,,,,,,,,,,,,,,,,,,,,,,,,,,,,,,,,,,,,,,,,,,,,,,,,,,,,,,,,,,,,,,,,7721253,PX4FMU_V1,251760679a4bed86fdb10746062fde2cc23e460f,test,305419904.0
0.0155354524031,-0.0227779820561,-2.22496128082,0.0511532984674,0.0382546670735,-0.0047596944496,0.518475055695,-0.672144412994,-9.32501602173,0.0,-0.00156632135622,-2.30623626709,0.0,0.518475055695,-0.672144412994,-9.32501602173,0.056214377284,0.0392165854573,-0.0283663980663,-0.0965403690934,0.16931347549,0.424457877874,1013.67999268,-3.57876133919,22.859998703,0.0,0.0,0.0,0.0,0.43398937583,0.0,0.0,0.0,0.0,0.335023283958,0.0,0.0,0.0,10,1,0,20.0,1.01726508141,,,,,,,,,,,,,,,,,,,,-0.0168291181326,0.00881839729846,-0.0115017648786,0.0,0,2,0,0.856635391712,0,1,0.0,0.0025641026441,0.0,0.0371287129819,0.99816006422,0.774436116219,-0.998161792755,0.0,7,0,10.0,10.0,10.0,10.0,0.0,0.0,0.0,0.0,,,,-0.0783014670014,0.106088489294,-0.0814381241798,0,0,0.0,0.0,0.300000011921,0,77,,,,,,,,,,,,,,,,,,,,,,,,,,,,,,,,,11.389714241,11.4842481613,-1.0,-1.0,,,,,,,,,,,,,,,,,,,,,,,,,,,,,,,,,,,,,,,,,,,,,,,,,,,,,,,,,,,,,,,,,,,,,,,,,,,,,,,,,,,,,,,,,,,,,,,,,,,,,,,7742401,PX4FMU_V1,251760679a4bed86fdb10746062fde2cc23e460f,test,305419904.0
0.0151858786121,-0.0231506694108,-2.22080039978,-0.0420295186341,-0.0464074723423,0.000304151384626,-0.505747199059,0.44557261467,-9.99634075165,0.0,-0.00156632135622,-2.30623626709,0.0,-0.505747199059,0.44557261467,-9.99634075165,-0.0395148321986,-0.0480965152383,0.0221441835165,-0.107548944652,0.16931347549,0.447600632906,1013.7199707,-3.91160678864,22.8699989319,0.0,0.0,0.0,0.0,0.434969007969,0.0,0.0,0.0,0.0,0.340619295835,0.0,0.0,0.0,10,1,0,20.0,1.01738536358,,,,,,,,,,,,,,,,,,,,-0.00449233548716,0.0200670603663,-0.0128853200004,0.0,0,2,0,0.856635391712,0,1,0.0,0.0025641026441,0.0,0.0371287129819,1.0,0.77192980051,-0.998161792755,0.0,7,0,10.0,10.0,10.0,10.0,0.0,0.0,0.0,0.0,,,,-0.0765859484673,0.107954531908,-0.0855979770422,-4,28,0.0407606884837,-0.253059089184,0.300000011921,47,77,,,,,,,,,,,,,,,,,,,,,,,,,,,,,,,,,11.3980951309,11.4840764999,-1.0,-1.0,,,,,,,,,,,,,,,,,,,,,,,,,,,,,,,,,,,,,,,,,,,,,,,,,,,,,,,,,,,,,,,,,,,,,,,,,,,,,,,,,,,,,,,,,,,,,,,,,,,,,,,7764713,PX4FMU_V1,251760679a4bed86fdb10746062fde2cc23e460f,test,305419904.0
0.0153594603762,-0.0230398941785,-2.21765518188,0.041485812515,0.0319355428219,0.00138758216053,0.313742935658,-0.260905683041,-9.61323928833,0.0,-0.00156632135622,-2.30623626709,0.0,0.313742935658,-0.260905683041,-9.61323928833,0.0652112811804,0.0527167618275,-0.0224010013044,-0.0717710927129,0.186790406704,0.418227136135,1013.69995117,-3.74518537521,22.8699989319,0.0,0.0,0.0,0.0,0.438244611025,0.0,0.0,0.0,0.0,0.33595085144,0.0,0.0,0.0,10,1,0,20.0,1.01750552654,,,,,,,,,,,,,,,,,,,,-0.0154653452337,0.00981075223535,-0.0135197723284,0.0,0,2,0,0.856635391712,0,1,0.0,0.0025641026441,0.0,0.0371287129819,0.99816006422,0.774436116219,-0.998161792755,0.0,7,0,10.0,10.0,10.0,10.0,0.0,0.0,0.0,0.0,,,,-0.0774783790112,0.107402868569,-0.0887442305684,3,9,-0.0299220550805,-0.0882143080235,0.300000011921,0,77,,,,,,,,,,,,,,,,,,,,,,,,,,,,,,,,,11.389714241,11.4839820862,-1.0,-1.0,,,,,,,,,,,,,,,,,,,,,,,,,,,,,,,,,,,,,,,,,,,,,,,,,,,,,,,,,,,,,,,,,,,,,,,,,,,,,,,,,,,,,,,,,,,,,,,,,,,,,,,7785884,PX4FMU_V1,251760679a4bed86fdb10746062fde2cc23e460f,test,305419904.0
0.0156228076667,-0.0228566750884,-2.21480059624,-0.024972230196,-0.0296482276171,-0.0178956799209,0.183383315802,-0.113866083324,-9.69809055328,0.0,0.0,-2.30623626709,0.0,0.183383315802,-0.113866083324,-9.69809055328,-0.0620134063065,-0.0597468428314,-0.000671388348565,-0.0818622857332,0.205931812525,0.421787559986,1013.67999268,-3.57876133919,22.8699989319,0.0,0.0,0.0,0.0,0.438713997602,0.0,0.0,0.0,0.0,0.341471046209,0.0,0.0,0.0,10,1,0,20.0,1.01756572723,,,,,,,,,,,,,,,,,,,,-0.00690666539595,0.0187117122114,-0.0110577866435,0.0,0,2,0,0.856635391712,0,1,0.0,-0.0,0.0,0.0346534661949,1.0,0.774436116219,-0.998161792755,0.0,7,0,10.0,10.0,10.0,10.0,0.0,0.0,0.0,0.0,,,,-0.0781004279852,0.114288017154,-0.091614253819,-15,-26,0.135000005364,0.237381413579,0.300000011921,0,77,,,,,,,,,,,,,,,,,,,,,,,,,,,,,,,,,11.389714241,11.4838018417,-1.0,-1.0,,,,,,,,,,,,,,,,,,,,,,,,,,,,,,,,,,,,,,,,,,,,,,,,,,,,,,,,,,,,,,,,,,,,,,,,,,,,,,,,,,,,,,,,,,,,,,,,,,,,,,,7807076,PX4FMU_V1,251760679a4bed86fdb10746062fde2cc23e460f,test,305419904.0
0.0152413602918,-0.0232606716454,-2.21601033211,0.029374839738,0.0209959410131,0.00963021814823,-0.0594751611352,-0.08420753479,-9.87189674377,0.0,-0.00156632135622,-2.30623626709,0.0,-0.0594751611352,-0.08420753479,-9.87189674377,0.0645361691713,0.0533635765314,-0.00927165243775,-0.10296202451,0.126869499683,0.439589679241,1013.67999268,-3.57876133919,22.859998703,0.0,0.0,0.0,0.0,0.440668523312,0.0,0.0,0.0,0.0,0.337651640177,0.0,0.0,0.0,10,1,0,20.0,1.01768565178,,,,,,,,,,,,,,,,,,,,-0.0138157987967,0.0113765504211,-0.0150029761717,0.0,0,2,0,0.856635391712,0,1,0.0,0.0025641026441,0.0,0.0371287129819,0.99816006422,0.774436116219,-0.998161792755,0.0,7,0,10.0,10.0,10.0,10.0,0.0,0.0,0.0,0.0,,,,-0.0769005417824,0.108507864177,-0.0903896167874,-17,6,0.127682894468,-0.0518261417747,0.300000011921,0,77,,,,,,,,,,,,,,,,,,,,,,,,,,,,,,,,,11.3980951309,11.4836301804,-1.0,-1.0,,,,,,,,,,,,,,,,,,,,,,,,,,,,,,,,,,,,,,,,,,,,,,,,,,,,,,,,,,,,,,,,,,,,,,,,,,,,,,,,,,,,,,,,,,,,,,,,,,,,,,,7829062,PX4FMU_V1,251760679a4bed86fdb10746062fde2cc23e460f,test,305419904.0
0.015798734501,-0.0228342264891,-2.21231269836,-0.00748003600165,-0.0170744359493,-0.0245767757297,0.289766907692,-0.432419866323,-9.52203941345,0.0,-0.00156632135622,-2.30623626709,0.0,0.289766907692,-0.432419866323,-9.52203941345,-0.049641802907,-0.0524200238287,-0.0115578463301,-0.0809449031949,0.224240973592,0.433358937502,1013.66998291,-3.49554824829,22.859998703,0.0,0.0,0.0,0.0,0.441556662321,0.0,0.0,0.0,0.0,0.341518580914,0.0,0.0,0.0,10,1,0,20.0,1.01780664921,,,,,,,,,,,,,,,,,,,,-0.00939071271569,0.0160488877445,-0.0104269580916,0.0,0,2,0,0.856635391712,0,1,0.0,0.0025641026441,0.0,0.0371287129819,0.99816006422,0.774436116219,-0.998161792755,0.0,7,0,10.0,10.0,10.0,10.0,0.0,0.0,0.0,0.0,,,,-0.0797162875533,0.106378555298,-0.0940898284316,-14,-17,0.126000002027,0.15621984005,0.300000011921,59,77,,,,,,,,,,,,,,,,,,,,,,,,,,,,,,,,,11.389714241,11.4834432602,-1.0,-1.0,,,,,,,,,,,,,,,,,,,,,,,,,,,,,,,,,,,,,,,,,,,,,,,,,,,,,,,,,,,,,,,,,,,,,,,,,,,,,,,,,,,,,,,,,,,,,,,,,,,,,,,7850480,PX4FMU_V1,251760679a4bed86fdb10746062fde2cc23e460f,test,305419904.0
0.0151930134743,-0.023406021297,-2.20865917206,0.0121445124969,0.00628017820418,0.0170764811337,-0.275981485844,0.191143631935,-9.93391227722,0.0,-0.00156632135622,-2.30623626709,0.0,-0.275981485844,0.191143631935,-9.93391227722,0.0489294528961,0.0402218997478,0.00363300088793,-0.0910360962152,0.223408743739,0.429798513651,1013.72998047,-3.99481654167,22.859998703,0.0,0.0,0.0,0.0,0.441831201315,0.0,0.0,0.0,0.0,0.336874008179,0.0,0.0,0.0,10,1,0,20.0,1.01792669296,,,,,,,,,,,,,,,,,,,,-0.0115518691018,0.0133847827092,-0.017222635448,0.0,0,2,0,0.85556602478,0,1,0.0,0.0025641026441,0.0,0.0371287129819,0.99816006422,0.774436116219,-0.998161792755,0.0,7,0,10.0,10.0,10.0,10.0,0.0,0.0,0.0,0.0,,,,-0.0767160207033,0.109240047634,-0.0977410823107,-6,-28,0.0490593276918,0.212107792497,0.300000011921,79,77,,,,,,,,,,,,,,,,,,,,,,,,,,,,,,,,,11.389714241,11.48325634,-1.0,-1.0,,,,,,,,,,,,,,,,,,,,,,,,,,,,,,,,,,,,,,,,,,,,,,,,,,,,,,,,,,,,,,,,,,,,,,,,,,,,,,,,,,,,,,,,,,,,,,,,,,,,,,,7873208,PX4FMU_V1,251760679a4bed86fdb10746062fde2cc23e460f,test,305419904.0
0.0158299002796,-0.0229061804712,-2.20536565781,0.00626296969131,-0.00391658674926,-0.027681177482,0.361003398895,-0.477923840284,-9.3923664093,0.0,-0.00156632135622,-2.30623626709,0.0,0.361003398895,-0.477923840284,-9.3923664093,-0.0296577699482,-0.0354554019868,-0.0171101633459,-0.100209906697,0.181796982884,0.420897454023,1013.72998047,-3.99481654167,22.859998703,0.0,0.0,0.0,0.0,0.447076797485,0.0,0.0,0.0,0.0,0.342644661665,0.0,0.0,0.0,10,1,0,20.0,1.0180478096,,,,,,,,,,,,,,,,,,,,-0.0112045891583,0.014385830611,-0.0110034523532,0.0,0,2,0,0.85556602478,0,1,0.0,0.0025641026441,0.0,0.0371287129819,0.99816006422,0.774436116219,-0.998161792755,0.0,7,0,10.0,10.0,10.0,10.0,0.0,0.0,0.0,0.0,,,,-0.0799261778593,0.106743656099,-0.101037524641,0,0,0.0,0.0,0.300000011921,0,77,,,,,,,,,,,,,,,,,,,,,,,,,,,,,,,,,11.3980951309,11.483171463,-1.0,-1.0,,,,,,,,,,,,,,,,,,,,,,,,,,,,,,,,,,,,,,,,,,,,,,,,,,,,,,,,,,,,,,,,,,,,,,,,,,,,,,,,,,,,,,,,,,,,,,,,,,,,,,,7893717,PX4FMU_V1,251760679a4bed86fdb10746062fde2cc23e460f,test,305419904.0
0.0152274202555,-0.0235076602548,-2.2070646286,-0.0140598844737,-0.0200906377286,0.0205754637718,-0.74554502964,0.381658673286,-9.95094013214,0.0,-0.00156632135622,-2.30623626709,0.0,-0.74554502964,0.381658673286,-9.95094013214,0.0117691028863,0.00705958018079,0.0237934365869,-0.0992925167084,0.111889265478,0.439589679241,1013.69000244,-3.66197371483,22.859998703,0.0,0.0,0.0,0.0,0.447696655989,0.0,0.0,0.0,0.0,0.341308295727,0.0,0.0,0.0,10,1,0,20.0,1.01810717583,,,,,,,,,,,,,,,,,,,,-0.00816925801337,0.0168792139739,-0.0179868172854,0.0,0,2,0,0.85556602478,0,1,0.0,0.0025641026441,0.0,0.0371287129819,0.99816006422,0.774436116219,-0.998161792755,0.0,7,0,10.0,10.0,10.0,10.0,0.0,0.0,0.0,0.0,,,,-0.0769003331661,0.109749466181,-0.0993366464972,-9,12,0.0715137645602,-0.0927820056677,0.300000011921,0,77,,,,,,,,,,,,,,,,,,,,,,,,,,,,,,,,,11.389714241,11.4829845428,-1.0,-1.0,,,,,,,,,,,,,,,,,,,,,,,,,,,,,,,,,,,,,,,,,,,,,,,,,,,,,,,,,,,,,,,,,,,,,,,,,,,,,,,,,,,,,,,,,,,,,,,,,,,,,,,7915115,PX4FMU_V1,251760679a4bed86fdb10746062fde2cc23e460f,test,305419904.0
0.0158855039626,-0.0229785256088,-2.20219421387,0.0111704515293,-0.00100238539744,-0.0319694839418,0.207657322288,-0.538910984993,-9.39898681641,0.0,-0.00156632135622,-2.30623626709,0.0,0.207657322288,-0.538910984993,-9.39898681641,-0.0203143451363,-0.0314956307411,-0.0302930083126,-0.0928708612919,0.210925206542,0.428018301725,1013.69000244,-3.66197371483,22.859998703,0.0,0.0,0.0,0.0,0.450345933437,0.0,0.0,0.0,0.0,0.339773952961,0.0,0.0,0.0,10,1,0,20.0,1.01822769642,,,,,,,,,,,,,,,,,,,,-0.0118818990886,0.014054344967,-0.0108360908926,0.0,0,2,0,0.85556602478,0,1,0.0,0.0025641026441,0.0,0.0371287129819,0.99816006422,0.774436116219,-0.998161792755,0.0,7,0,10.0,10.0,10.0,10.0,0.0,0.0,0.0,0.0,,,,-0.0802287757397,0.107107967138,-0.104210086167,0,0,0.0,0.0,0.300000011921,0,77,,,,,,,,,,,,,,,,,,,,,,,,,,,,,,,,,11.3980951309,11.4828147888,-1.0,-1.0,,,,,,,,,,,,,,,,,,,,,,,,,,,,,,,,,,,,,,,,,,,,,,,,,,,,,,,,,,,,,,,,,,,,,,,,,,,,,,,,,,,,,,,,,,,,,,,,,,,,,,,7936890,PX4FMU_V1,251760679a4bed86fdb10746062fde2cc23e460f,test,305419904.0
0.0152528434992,-0.0235301237553,-2.20352101326,-0.0193595085293,-0.0246157217771,0.0236686915159,-0.726299345493,0.418673217297,-9.97147750854,0.0,-0.00156632135622,-2.30623626709,0.0,-0.726299345493,0.418673217297,-9.97147750854,0.00307652680203,-0.00456065684557,0.0334109030664,-0.0974577516317,0.132695138454,0.44493034482,1013.65997314,-3.41233468056,22.859998703,0.0,0.0,0.0,0.0,0.450040847063,0.0,0.0,0.0,0.0,0.339930772781,0.0,0.0,0.0,10,1,0,20.0,1.01834762096,,,,,,,,,,,,,,,,,,,,-0.00750041753054,0.0174824502319,-0.0189824011177,0.0,0,2,0,0.85556602478,0,1,0.0,0.0025641026441,0.0,0.0371287129819,0.99816006422,0.774436116219,-0.998161792755,0.0,7,0,10.0,10.0,10.0,10.0,0.0,0.0,0.0,0.0,,,,-0.0770550295711,0.109864659607,-0.102880641818,0,0,0.0,0.0,0.300000011921,0,77,,,,,,,,,,,,,,,,,,,,,,,,,,,,,,,,,11.389714241,11.4826202393,-1.0,-1.0,,,,,,,,,,,,,,,,,,,,,,,,,,,,,,,,,,,,,,,,,,,,,,,,,,,,,,,,,,,,,,,,,,,,,,,,,,,,,,,,,,,,,,,,,,,,,,,,,,,,,,,7958380,PX4FMU_V1,251760679a4bed86fdb10746062fde2cc23e460f,test,305419904.0
0.0158016085625,-0.0230914913118,-2.20189285278,0.0293454509228,0.0182601585984,-0.0312953256071,0.433159172535,-0.633583426476,-9.2321138382,0.0,-0.00156632135622,-2.30623626709,0.0,0.433159172535,-0.633583426476,-9.2321138382,0.0150866173208,0.00406769383699,-0.0505358688533,-0.0956229865551,0.131030678749,0.447600632906,1013.7199707,-3.91160678864,22.8799991608,0.0,0.0,0.0,0.0,0.450168848038,0.0,0.0,0.0,0.0,0.33916246891,0.0,0.0,0.0,10,1,0,20.0,1.01846766472,,,,,,,,,,,,,,,,,,,,-0.0141904139891,0.0116236722097,-0.0109823830426,0.0,0,2,0,0.85556602478,0,1,0.0,0.0025641026441,0.0,0.0371287129819,0.99816006422,0.774436116219,-0.998161792755,0.0,7,0,10.0,10.0,10.0,10.0,0.0,0.0,0.0,0.0,,,,-0.0798115804791,0.107673026621,-0.104511208832,-8,-20,0.0778154209256,0.185679659247,0.300000011921,0,77,,,,,,,,,,,,,,,,,,,,,,,,,,,,,,,,,11.3980951309,11.4825353622,-1.0,-1.0,,,,,,,,,,,,,,,,,,,,,,,,,,,,,,,,,,,,,,,,,,,,,,,,,,,,,,,,,,,,,,,,,,,,,,,,,,,,,,,,,,,,,,,,,,,,,,,,,,,,,,,7979439,PX4FMU_V1,251760679a4bed86fdb10746062fde2cc23e460f,test,305419904.0
0.0153035502881,-0.0235560759902,-2.20012259483,-0.0187051203102,-0.0237465538085,0.0209930017591,-0.608815312386,0.308280318975,-9.88644218445,0.0,-0.00156632135622,-2.30623626709,0.0,-0.608815312386,0.308280318975,-9.88644218445,0.000286075053737,-0.0061884666793,0.0340741127729,-0.0965403690934,0.159326657653,0.452051192522,1013.69000244,-3.66197371483,22.8799991608,0.0,0.0,0.0,0.0,0.453845262527,0.0,0.0,0.0,0.0,0.339312911034,0.0,0.0,0.0,10,1,0,20.0,1.01858878136,,,,,,,,,,,,,,,,,,,,-0.00762187922373,0.0173866823316,-0.019090924412,0.0,0,2,0,0.85556602478,0,1,0.0,0.0025641026441,0.0,0.0371287129819,0.99816006422,0.774436116219,-0.998161792755,0.0,7,0,10.0,10.0,10.0,10.0,0.0,0.0,0.0,0.0,,,,-0.0773349627852,0.109997168183,-0.106279827654,0,0,0.0,0.0,0.300000011921,0,77,,,,,,,,,,,,,,,,,,,,,,,,,,,,,,,,,11.389714241,11.4823579788,-1.0,-1.0,,,,,,,,,,,,,,,,,,,,,,,,,,,,,,,,,,,,,,,,,,,,,,,,,,,,,,,,,,,,,,,,,,,,,,,,,,,,,,,,,,,,,,,,,,,,,,,,,,,,,,,8001431,PX4FMU_V1,251760679a4bed86fdb10746062fde2cc23e460f,test,305419904.0
0.0158101562411,-0.023163497448,-2.19851183891,0.0293739009649,0.0164920073003,-0.0287287756801,0.315467000008,-0.580561816692,-9.25989532471,0.0,-0.00156632135622,-2.30623626709,0.0,0.315467000008,-0.580561816692,-9.25989532471,0.0191066022962,0.00598514731973,-0.0508512295783,-0.0974577516317,0.184293702245,0.415556818247,1013.69000244,-3.66197371483,22.8799991608,0.0,0.0,0.0,0.0,0.454383760691,0.0,0.0,0.0,0.0,0.337635934353,0.0,0.0,0.0,10,1,0,20.0,1.01864910126,,,,,,,,,,,,,,,,,,,,-0.0142030818388,0.0119007034227,-0.0118746347725,0.0,0,2,0,0.85556602478,0,1,0.0,0.0025641026441,0.0,0.0371287129819,0.99816006422,0.774436116219,-0.998161792755,0.0,7,0,10.0,10.0,10.0,10.0,0.0,0.0,0.0,0.0,,,,-0.0798805803061,0.108035884798,-0.107893005013,0,0,0.0,0.0,0.300000011921,0,77,,,,,,,,,,,,,,,,,,,,,,,,,,,,,,,,,11.3980951309,11.4821815491,-1.0,-1.0,,,,,,,,,,,,,,,,,,,,,,,,,,,,,,,,,,,,,,,,,,,,,,,,,,,,,,,,,,,,,,,,,,,,,,,,,,,,,,,,,,,,,,,,,,,,,,,,,,,,,,,8021919,PX4FMU_V1,251760679a4bed86fdb10746062fde2cc23e460f,test,305419904.0
0.0154661536217,-0.0234499890357,-2.19756770134,-0.0278847832233,-0.0301439017057,0.0112531539053,-0.361163705587,0.329246640205,-9.91098022461,0.0,-0.00156632135622,-2.30623626709,0.0,-0.361163705587,0.329246640205,-9.91098022461,-0.0266583096236,-0.0293797515333,0.0383373387158,-0.0928708612919,0.172642409801,0.432468831539,1013.75,-4.16123390198,22.8699989319,0.0,0.0,0.0,0.0,0.457516789436,0.0,0.0,0.0,0.0,0.342110574245,0.0,0.0,0.0,10,1,0,20.0,1.01876914501,,,,,,,,,,,,,,,,,,,,-0.006536799483,0.018149677664,-0.0180133190006,0.0,0,2,0,0.85556602478,0,1,0.0,0.0025641026441,0.0,0.0371287129819,0.99816006422,0.774436116219,-0.998161792755,0.0,7,0,10.0,10.0,10.0,10.0,0.0,0.0,0.0,0.0,,,,-0.0781678557396,0.109469003975,-0.108835630119,0,0,0.0,0.0,0.300000011921,0,77,,,,,,,,,,,,,,,,,,,,,,,,,,,,,,,,,11.3980951309,11.4820137024,-1.0,-1.0,,,,,,,,,,,,,,,,,,,,,,,,,,,,,,,,,,,,,,,,,,,,,,,,,,,,,,,,,,,,,,,,,,,,,,,,,,,,,,,,,,,,,,,,,,,,,,,,,,,,,,,8043104,PX4FMU_V1,251760679a4bed86fdb10746062fde2cc23e460f,test,305419904.0
0.0158113129437,-0.0232654809952,-2.19666671753,0.0340732894838,0.0196093544364,-0.0265871547163,0.319608569145,-0.663622975349,-9.33525943756,0.0,-0.00156632135622,-2.30623626709,0.0,0.319608569145,-0.663622975349,-9.33525943756,0.0326741933823,0.0156328938901,-0.0562202371657,-0.0947056040168,0.161823362112,0.453831404448,1013.72998047,-3.99481654167,22.8699989319,0.0,0.0,0.0,0.0,0.463562935591,0.0,0.0,0.0,0.0,0.340535014868,0.0,0.0,0.0,10,1,0,20.0,1.01888906956,,,,,,,,,,,,,,,,,,,,-0.0148166064173,0.0115619413555,-0.0124727711082,0.0,0,2,0,0.85556602478,0,1,0.0,0.0025641026441,0.0,0.0371287129819,0.99816006422,0.774436116219,-0.998161792755,0.0,7,0,10.0,10.0,10.0,10.0,0.0,0.0,0.0,0.0,,,,-0.0799006074667,0.108547367156,-0.109738960862,0,0,0.0,0.0,0.300000011921,0,77,,,,,,,,,,,,,,,,,,,,,,,,,,,,,,,,,11.389714241,11.4818286896,-1.0,-1.0,,,,,,,,,,,,,,,,,,,,,,,,,,,,,,,,,,,,,,,,,,,,,,,,,,,,,,,,,,,,,,,,,,,,,,,,,,,,,,,,,,,,,,,,,,,,,,,,,,,,,,,8065337,PX4FMU_V1,251760679a4bed86fdb10746062fde2cc23e460f,test,305419904.0
0.0155716212466,-0.0234626717865,-2.19597005844,-0.0298234894872,-0.0322041213512,0.00455363001674,-0.219091787934,0.307788938284,-9.84064006805,0.0,-0.00156632135622,-2.30623626709,0.0,-0.219091787934,0.307788938284,-9.84064006805,-0.0389358736575,-0.0399731174111,0.0370501466095,-0.0873665586114,0.143514186144,0.439589679241,1013.75994873,-4.24444198608,22.8699989319,0.0,0.0,0.0,0.0,0.469668567181,0.0,0.0,0.0,0.0,0.346160173416,0.0,0.0,0.0,10,1,0,20.0,1.01900923252,,,,,,,,,,,,,,,,,,,,-0.00635492429137,0.0184259358793,-0.017248230055,0.0,0,2,0,0.854551970959,0,1,0.0,0.0025641026441,0.0,0.0346534661949,1.0,0.77192980051,-0.996323525906,0.0,7,0,10.0,10.0,10.0,10.0,0.0,0.0,0.0,0.0,,,,-0.078707523644,0.109533846378,-0.110434561968,0,0,0.0,0.0,0.300000011921,0,77,,,,,,,,,,,,,,,,,,,,,,,,,,,,,,,,,11.3980951309,11.4817447662,-1.0,-1.0,,,,,,,,,,,,,,,,,,,,,,,,,,,,,,,,,,,,,,,,,,,,,,,,,,,,,,,,,,,,,,,,,,,,,,,,,,,,,,,,,,,,,,,,,,,,,,,,,,,,,,,8086319,PX4FMU_V1,251760679a4bed86fdb10746062fde2cc23e460f,test,305419904.0
0.0155477486551,-0.0235885120928,-2.19380021095,0.0248787552118,0.0146850636229,0.00166749581695,0.0563349463046,-0.161401614547,-9.70606994629,0.0,-0.00156632135622,-2.30623626709,0.0,0.0563349463046,-0.161401614547,-9.70606994629,0.0465532392263,0.0328265465796,-0.0292572006583,-0.0781927853823,0.175139114261,0.447600632906,1013.7199707,-3.91160678864,22.8699989319,0.0,0.0,0.0,0.0,0.472396701574,0.0,0.0,0.0,0.0,0.344040602446,0.0,0.0,0.0,10,1,0,20.0,1.01906991005,,,,,,,,,,,,,,,,,,,,-0.0134528810158,0.0124123860151,-0.0171408951283,0.0,0,2,0,0.854551970959,0,1,0.0,0.0025641026441,0.0,0.0346534661949,1.0,0.77192980051,-0.996323525906,0.0,7,0,10.0,10.0,10.0,10.0,0.0,0.0,0.0,0.0,,,,-0.0786049515009,0.110164962709,-0.112605124712,0,0,0.0,0.0,0.300000011921,0,77,,,,,,,,,,,,,,,,,,,,,,,,,,,,,,,,,11.3729524612,11.481543541,-1.0,-1.0,,,,,,,,,,,,,,,,,,,,,,,,,,,,,,,,,,,,,,,,,,,,,,,,,,,,,,,,,,,,,,,,,,,,,,,,,,,,,,,,,,,,,,,,,,,,,,,,,,,,,,,8107475,PX4FMU_V1,251760679a4bed86fdb10746062fde2cc23e460f,test,305419904.0
0.0156393181533,-0.0235091336071,-2.19259333611,-0.0235092435032,-0.0262829810381,-0.00418702699244,0.0209920089692,0.17775374651,-9.80007362366,0.0,-0.00156632135622,-2.30623626709,0.0,0.0209920089692,0.17775374651,-9.80007362366,-0.0367773100734,-0.0367222763598,0.0277701839805,-0.0864492058754,0.196777224541,0.443150103092,1013.67999268,-3.57876133919,22.8699989319,0.0,0.0,0.0,0.0,0.473729103804,0.0,0.0,0.0,0.0,0.347775995731,0.0,0.0,0.0,10,1,0,20.0,1.01919054985,,,,,,,,,,,,,,,,,,,,-0.00722318422049,0.0176867768168,-0.0164438020438,0.0,0,2,0,0.854551970959,0,1,0.0,0.0025641026441,0.0,0.0371287129819,0.99816006422,0.774436116219,-0.998161792755,0.0,7,0,10.0,10.0,10.0,10.0,0.0,0.0,0.0,0.0,,,,-0.0790721997619,0.109769143164,-0.113812364638,0,-2,0.0,0.0158101189882,0.300000011921,47,77,,,,,,,,,,,,,,,,,,,,,,,,,,,,,,,,,11.3980951309,11.4813690186,-1.0,-1.0,,,,,,,,,,,,,,,,,,,,,,,,,,,,,,,,,,,,,,,,,,,,,,,,,,,,,,,,,,,,,,,,,,,,,,,,,,,,,,,,,,,,,,,,,,,,,,,,,,,,,,,8129323,PX4FMU_V1,251760679a4bed86fdb10746062fde2cc23e460f,test,305419904.0
0.0155740892515,-0.0236731804907,-2.19245052338,0.0204900018871,0.0101273329929,0.00788357853889,-0.101995915174,-0.165955930948,-9.68196582794,0.0,-0.00156632135622,-2.30623626709,0.0,-0.101995915174,-0.165955930948,-9.68196582794,0.0413942933083,0.0286498144269,-0.0219635739923,-0.0607625506818,0.125205025077,0.43602925539,1013.7199707,-3.91160678864,22.8699989319,0.0,0.0,0.0,0.0,0.476254224777,0.0,0.0,0.0,0.0,0.344572365284,0.0,0.0,0.0,10,1,0,20.0,1.01930987835,,,,,,,,,,,,,,,,,,,,-0.012900814414,0.0130600817502,-0.0182758569717,0.0,0,2,0,0.854551970959,0,1,0.0,0.0025641026441,0.0,0.0371287129819,0.99816006422,0.774436116219,-0.998161792755,0.0,7,0,10.0,10.0,10.0,10.0,0.0,0.0,0.0,0.0,,,,-0.0787470340729,0.110589504242,-0.113955460489,-8,-4,0.0734210535884,0.0360203012824,0.300000011921,75,77,,,,,,,,,,,,,,,,,,,,,,,,,,,,,,,,,11.3813333511,11.48117733,-1.0,-1.0,,,,,,,,,,,,,,,,,,,,,,,,,,,,,,,,,,,,,,,,,,,,,,,,,,,,,,,,,,,,,,,,,,,,,,,,,,,,,,,,,,,,,,,,,,,,,,,,,,,,,,,8149865,PX4FMU_V1,251760679a4bed86fdb10746062fde2cc23e460f,test,305419904.0
0.0158321484923,-0.023465083912,-2.19339132309,-0.0099168214947,-0.0137890540063,-0.0269820280373,0.372062712908,-0.260121464729,-9.64831066132,0.0,-0.00156632135622,-2.30623626709,0.0,0.372062712908,-0.260121464729,-9.64831066132,-0.0348908491433,-0.031764164567,-0.00367635861039,-0.137822493911,0.19095158577,0.431578755379,1013.69000244,-3.66197371483,22.8699989319,0.0,0.0,0.0,0.0,0.47874930501,0.0,0.0,0.0,0.0,0.34840425849,0.0,0.0,0.0,10,1,0,20.0,1.01943039894,,,,,,,,,,,,,,,,,,,,-0.00911471899599,0.0160338599235,-0.0129050826654,0.0,0,2,0,0.854551970959,0,1,0.0,0.0025641026441,0.0,0.0371287129819,0.99816006422,0.774436116219,-0.998161792755,0.0,7,0,10.0,10.0,10.0,10.0,0.0,0.0,0.0,0.0,,,,-0.0800300464034,0.109548337758,-0.113015912473,0,0,0.0,0.0,0.300000011921,0,77,,,,,,,,,,,,,,,,,,,,,,,,,,,,,,,,,11.3980951309,11.4810943604,-1.0,-1.0,,,,,,,,,,,,,,,,,,,,,,,,,,,,,,,,,,,,,,,,,,,,,,,,,,,,,,,,,,,,,,,,,,,,,,,,,,,,,,,,,,,,,,,,,,,,,,,,,,,,,,,8171129,PX4FMU_V1,251760679a4bed86fdb10746062fde2cc23e460f,test,305419904.0
0.0155580081046,-0.0237595830113,-2.19002223015,0.0159905962646,0.00450380379334,0.0108614740893,-0.247461929917,-0.0756481066346,-9.73575305939,0.0,-0.00156632135622,-2.30623626709,0.0,-0.247461929917,-0.0756481066346,-9.73575305939,0.0366598144174,0.0215503610671,-0.0159693714231,-0.126813918352,0.215086385608,0.432468831539,1013.75,-4.16123390198,22.8699989319,0.0,0.0,0.0,0.0,0.481733590364,0.0,0.0,0.0,0.0,0.345535099506,0.0,0.0,0.0,10,1,0,20.0,1.01955080032,,,,,,,,,,,,,,,,,,,,-0.012307882309,0.0138475894928,-0.0190868601203,0.0,0,2,0,0.854551970959,0,1,0.0,0.0025641026441,0.0,0.0371287129819,1.0,0.77192980051,-0.998161792755,0.0,7,0,10.0,10.0,10.0,10.0,0.0,0.0,0.0,0.0,,,,-0.0786854252219,0.111023724079,-0.116384245455,0,0,0.0,0.0,0.300000011921,0,77,,,,,,,,,,,,,,,,,,,,,,,,,,,,,,,,,11.3980951309,11.480919838,-1.0,-1.0,,,,,,,,,,,,,,,,,,,,,,,,,,,,,,,,,,,,,,,,,,,,,,,,,,,,,,,,,,,,,,,,,,,,,,,,,,,,,,,,,,,,,,,,,,,,,,,,,,,,,,,8193709,PX4FMU_V1,251760679a4bed86fdb10746062fde2cc23e460f,test,305419904.0
0.0158860199153,-0.0235256962478,-2.19026732445,-0.00475224200636,-0.0112415133044,-0.0311907343566,0.293443441391,-0.217151716352,-9.56847763062,0.0,0.0,-2.30623626709,0.0,0.293443441391,-0.217151716352,-9.56847763062,-0.0298796743155,-0.0313770286739,-0.0141339190304,-0.136905103922,0.16681677103,0.43602925539,1013.70996094,-3.82839655876,22.8699989319,0.0,0.0,0.0,0.0,0.483868539333,0.0,0.0,0.0,0.0,0.347948998213,0.0,0.0,0.0,10,1,0,20.0,1.01961112022,,,,,,,,,,,,,,,,,,,,-0.00970621686429,0.0167537424713,-0.0127447647974,0.0,0,2,0,0.854551970959,0,1,0.0,-0.0,0.0,0.0346534661949,1.0,0.774436116219,-0.998161792755,0.0,7,0,10.0,10.0,10.0,10.0,0.0,0.0,0.0,0.0,,,,-0.07941544801,0.11763343215,-0.116155833006,0,0,0.0,0.0,0.300000011921,0,77,,,,,,,,,,,,,,,,,,,,,,,,,,,,,,,,,11.3980951309,11.4807538986,-1.0,-1.0,,,,,,,,,,,,,,,,,,,,,,,,,,,,,,,,,,,,,,,,,,,,,,,,,,,,,,,,,,,,,,,,,,,,,,,,,,,,,,,,,,,,,,,,,,,,,,,,,,,,,,,8214404,PX4FMU_V1,251760679a4bed86fdb10746062fde2cc23e460f,test,305419904.0
0.0154936080799,-0.0238490924239,-2.18984818459,-0.00130271783564,-0.00948724616319,0.0315649099648,-0.454304128885,0.158910155296,-9.79737281799,0.0,0.0,-2.30623626709,0.0,-0.454304128885,0.158910155296,-9.79737281799,0.0194590203464,0.00835923198611,0.027195636183,-0.122227028012,0.1584944278,0.432468831539,1013.66998291,-3.49554824829,22.8699989319,0.0,0.0,0.0,0.0,0.484166145325,0.0,0.0,0.0,0.0,0.346335679293,0.0,0.0,0.0,10,1,0,20.0,1.01973080635,,,,,,,,,,,,,,,,,,,,-0.0098995808512,0.0167358685285,-0.0222206674516,0.0,0,2,0,0.854551970959,0,1,0.0,-0.0,0.0,0.0346534661949,1.0,0.774436116219,-0.998161792755,0.0,7,0,10.0,10.0,10.0,10.0,0.0,0.0,0.0,0.0,,,,-0.0774533450603,0.119250200689,-0.116572864354,0,0,0.0,0.0,0.300000011921,0,77,,,,,,,,,,,,,,,,,,,,,,,,,,,,,,,,,11.389714241,11.4805803299,-1.0,-1.0,,,,,,,,,,,,,,,,,,,,,,,,,,,,,,,,,,,,,,,,,,,,,,,,,,,,,,,,,,,,,,,,,,,,,,,,,,,,,,,,,,,,,,,,,,,,,,,,,,,,,,,8235661,PX4FMU_V1,251760679a4bed86fdb10746062fde2cc23e460f,test,305419904.0
0.0159458648413,-0.0235541705042,-2.18593883514,-0.00140229100361,-0.00666073802859,-0.0371766090393,0.418777167797,-0.391551166773,-9.57116985321,0.0,0.0,-2.30623626709,0.0,0.418777167797,-0.391551166773,-9.57116985321,-0.0276218354702,-0.0259403046221,-0.0235641673207,-0.0369106605649,0.146843135357,0.429798513651,1013.69995117,-3.74518537521,22.8699989319,0.0,0.0,0.0,0.0,0.487032592297,0.0,0.0,0.0,0.0,0.348606944084,0.0,0.0,0.0,10,1,0,20.0,1.01985144615,,,,,,,,,,,,,,,,,,,,-0.0101805934682,0.0161767490208,-0.0124963121489,0.0,0,2,0,0.854551970959,0,1,0.0,-0.0,0.0,0.0346534661949,1.0,0.774436116219,-0.998161792755,0.0,7,0,10.0,10.0,10.0,10.0,0.0,0.0,0.0,0.0,,,,-0.079714551568,0.117775797844,-0.12048535049,0,0,0.0,0.0,0.300000011921,0,77,,,,,,,,,,,,,,,,,,,,,,,,,,,,,,,,,11.389714241,11.4804077148,-1.0,-1.0,,,,,,,,,,,,,,,,,,,,,,,,,,,,,,,,,,,,,,,,,,,,,,,,,,,,,,,,,,,,,,,,,,,,,,,,,,,,,,,,,,,,,,,,,,,,,,,,,,,,,,,8257636,PX4FMU_V1,251760679a4bed86fdb10746062fde2cc23e460f,test,305419904.0
0.015541867353,-0.0239180047065,-2.18770503998,-0.00386408856139,-0.014813634567,0.0321959406137,-0.368563055992,0.0435902252793,-9.81858253479,0.0,-0.00156632135622,-2.30623626709,0.0,-0.368563055992,0.0435902252793,-9.81858253479,0.0157867334783,-0.000659021199681,0.0392015650868,-0.12773129344,0.185125932097,0.430688619614,1013.66998291,-3.49554824829,22.8699989319,0.0,0.0,0.0,0.0,0.486931681633,0.0,0.0,0.0,0.0,0.345470309258,0.0,0.0,0.0,10,1,0,20.0,1.01997315884,,,,,,,,,,,,,,,,,,,,-0.00971860438585,0.016462109983,-0.0226347520947,0.0,0,2,0,0.854551970959,0,1,0.0,0.0025641026441,0.0,0.0346534661949,1.0,0.77192980051,-0.996323525906,0.0,7,0,10.0,10.0,10.0,10.0,0.0,0.0,0.0,0.0,,,,-0.0786225870252,0.111817985773,-0.118702404201,0,0,0.0,0.0,0.300000011921,0,77,,,,,,,,,,,,,,,,,,,,,,,,,,,,,,,,,11.3980951309,11.4803256989,-1.0,-1.0,,,,,,,,,,,,,,,,,,,,,,,,,,,,,,,,,,,,,,,,,,,,,,,,,,,,,,,,,,,,,,,,,,,,,,,,,,,,,,,,,,,,,,,,,,,,,,,,,,,,,,,8278949,PX4FMU_V1,251760679a4bed86fdb10746062fde2cc23e460f,test,305419904.0
0.0160028599203,-0.0236708018929,-2.18509364128,0.0178387928754,0.00852253008634,-0.0423192232847,0.24984125793,-0.529644429684,-9.40339279175,0.0,0.0,-2.30623626709,0.0,0.24984125793,-0.529644429684,-9.40339279175,0.000615753117017,-0.00129559997004,-0.0643549859524,-0.0983751341701,0.155997723341,0.439589679241,1013.69995117,-3.74518537521,22.8799991608,0.0,0.0,0.0,0.0,0.486354708672,0.0,0.0,0.0,0.0,0.34391194582,0.0,0.0,0.0,10,1,0,20.0,1.02003157139,,,,,,,,,,,,,,,,,,,,-0.0127189587802,0.014278749004,-0.0118519188836,0.0,0,2,0,0.853495299816,0,1,0.0,-0.0,0.0,0.0371287129819,0.99816006422,0.774436116219,-0.998161792755,0.0,7,0,10.0,10.0,10.0,10.0,0.0,0.0,0.0,0.0,,,,-0.0799993574619,0.118359066546,-0.121332012117,0,0,0.0,0.0,0.300000011921,0,77,,,,,,,,,,,,,,,,,,,,,,,,,,,,,,,,,11.3980951309,11.4801616669,-1.0,-1.0,,,,,,,,,,,,,,,,,,,,,,,,,,,,,,,,,,,,,,,,,,,,,,,,,,,,,,,,,,,,,,,,,,,,,,,,,,,,,,,,,,,,,,,,,,,,,,,,,,,,,,,8300328,PX4FMU_V1,251760679a4bed86fdb10746062fde2cc23e460f,test,305419904.0
0.0155459148809,-0.0239684078842,-2.18320679665,-0.00895527470857,-0.0200317725539,0.0376385524869,-0.487714469433,0.104924760759,-9.79404830933,0.0,0.0,-2.30623626709,0.0,-0.487714469433,0.104924760759,-9.79404830933,0.0105974134058,-0.00903727300465,0.0527555420995,-0.0726884827018,0.152668789029,0.430688619614,1013.66998291,-3.49554824829,22.8799991608,0.0,0.0,0.0,0.0,0.48771584034,0.0,0.0,0.0,0.0,0.345964252949,0.0,0.0,0.0,10,1,0,20.0,1.02015173435,,,,,,,,,,,,,,,,,,,,-0.00893872324377,0.0181842204183,-0.024128139019,0.0,0,2,0,0.853495299816,0,1,0.0,-0.0,0.0,0.0346534661949,1.0,0.774436116219,-0.998161792755,0.0,7,0,10.0,10.0,10.0,10.0,0.0,0.0,0.0,0.0,,,,-0.0777146890759,0.119846865535,-0.123215697706,0,0,0.0,0.0,0.300000011921,0,77,,,,,,,,,,,,,,,,,,,,,,,,,,,,,,,,,11.389714241,11.4799718857,-1.0,-1.0,,,,,,,,,,,,,,,,,,,,,,,,,,,,,,,,,,,,,,,,,,,,,,,,,,,,,,,,,,,,,,,,,,,,,,,,,,,,,,,,,,,,,,,,,,,,,,,,,,,,,,,8322447,PX4FMU_V1,251760679a4bed86fdb10746062fde2cc23e460f,test,305419904.0
0.0159958861768,-0.0237503349781,-2.18310666084,0.0216585360467,0.0126444762573,-0.0413471013308,0.263835728168,-0.497617810965,-9.35234546661,0.0,-0.00156632135622,-2.30623626709,0.0,0.263835728168,-0.497617810965,-9.35234546661,0.00896578654647,0.00715687917545,-0.0706835091114,-0.112135834992,0.168481230736,0.425347983837,1013.66998291,-3.49554824829,22.8799991608,0.0,0.0,0.0,0.0,0.486513316631,0.0,0.0,0.0,0.0,0.342622876167,0.0,0.0,0.0,10,1,0,20.0,1.02027201653,,,,,,,,,,,,,,,,,,,,-0.0133362803608,0.0127841625363,-0.0122936302796,0.0,0,2,0,0.853495299816,0,1,0.0,0.0025641026441,0.0,0.0371287129819,0.99816006422,0.774436116219,-0.998161792755,0.0,7,0,10.0,10.0,10.0,10.0,0.0,0.0,0.0,0.0,,,,-0.0809282362461,0.110984191298,-0.123304635286,0,0,0.0,0.0,0.300000011921,0,77,,,,,,,,,,,,,,,,,,,,,,,,,,,,,,,,,11.389714241,11.4797830582,-1.0,-1.0,,,,,,,,,,,,,,,,,,,,,,,,,,,,,,,,,,,,,,,,,,,,,,,,,,,,,,,,,,,,,,,,,,,,,,,,,,,,,,,,,,,,,,,,,,,,,,,,,,,,,,,8343722,PX4FMU_V1,251760679a4bed86fdb10746062fde2cc23e460f,test,305419904.0
0.0156152667478,-0.02392635867,-2.1831600666,-0.0118751693517,-0.0196587257087,0.0380739942193,-0.372934639454,0.141867369413,-9.79895591736,0.0,-0.00156632135622,-2.30623626709,0.0,-0.372934639454,0.141867369413,-9.79895591736,0.00401525245979,-0.012690089643,0.0596003755927,-0.0983751341701,0.160991117358,0.423567771912,1013.69000244,-3.66197371483,22.8899993896,0.0,0.0,0.0,0.0,0.489516884089,0.0,0.0,0.0,0.0,0.345011115074,0.0,0.0,0.0,10,1,0,20.0,1.02039325237,,,,,,,,,,,,,,,,,,,,-0.0087294569239,0.0170979611576,-0.02419834584,0.0,0,2,0,0.853495299816,0,1,0.0,0.0025641026441,0.0,0.0371287129819,0.99816006422,0.774436116219,-0.998161792755,0.0,7,0,10.0,10.0,10.0,10.0,0.0,0.0,0.0,0.0,,,,-0.079024836421,0.111864067614,-0.123248293996,13,7,-0.125357151031,-0.0695485845208,0.300000011921,0,77,,,,,,,,,,,,,,,,,,,,,,,,,,,,,,,,,11.389714241,11.4796113968,-1.0,-1.0,,,,,,,,,,,,,,,,,,,,,,,,,,,,,,,,,,,,,,,,,,,,,,,,,,,,,,,,,,,,,,,,,,,,,,,,,,,,,,,,,,,,,,,,,,,,,,,,,,,,,,,8366026,PX4FMU_V1,251760679a4bed86fdb10746062fde2cc23e460f,test,305419904.0
0.015954695642,-0.0238897781819,-2.18089556694,0.0183938294649,0.00724374083802,-0.0392974615097,0.0739213377237,-0.487672358751,-9.48551654816,0.0,-0.00156632135622,-2.30623626709,0.0,0.0739213377237,-0.487672358751,-9.48551654816,0.0103502497077,0.00686574634165,-0.0707284286618,-0.0910360962152,0.178468048573,0.435139149427,1013.7199707,-3.91160678864,22.8899993896,0.0,0.0,0.0,0.0,0.492291808128,0.0,0.0,0.0,0.0,0.34455794096,0.0,0.0,0.0,10,1,0,20.0,1.02051270008,,,,,,,,,,,,,,,,,,,,-0.0128873120993,0.0135771790519,-0.0129328146577,0.0,0,2,0,0.853495299816,0,1,0.0,0.0025641026441,0.0,0.0371287129819,1.0,0.77192980051,-0.998161792755,0.0,7,0,10.0,10.0,10.0,10.0,0.0,0.0,0.0,0.0,,,,-0.0807393416762,0.111683577299,-0.125516220927,0,0,0.0,0.0,0.300000011921,0,77,,,,,,,,,,,,,,,,,,,,,,,,,,,,,,,,,11.3980951309,11.4795303345,-1.0,-1.0,,,,,,,,,,,,,,,,,,,,,,,,,,,,,,,,,,,,,,,,,,,,,,,,,,,,,,,,,,,,,,,,,,,,,,,,,,,,,,,,,,,,,,,,,,,,,,,,,,,,,,,8386866,PX4FMU_V1,251760679a4bed86fdb10746062fde2cc23e460f,test,305419904.0
0.0157016180456,-0.0238898266107,-2.18019604683,-0.0138642480597,-0.0187492109835,0.0211994927377,-0.144011750817,0.166007727385,-9.76997947693,0.0,-0.00156632135622,-2.30623626709,0.0,-0.144011750817,0.166007727385,-9.76997947693,-0.00976529344916,-0.0221313685179,0.0579608902335,-0.101127289236,0.172642409801,0.435139149427,1013.7199707,-3.91160678864,22.8799991608,0.0,0.0,0.0,0.0,0.49418669939,0.0,0.0,0.0,0.0,0.346284508705,0.0,0.0,0.0,10,1,0,20.0,1.02057230473,,,,,,,,,,,,,,,,,,,,-0.0085299955681,0.0169563684613,-0.022111851722,0.0,0,2,0,0.853495299816,0,1,0.0,0.0025641026441,0.0,0.0371287129819,0.99816006422,0.774436116219,-0.998161792755,0.0,7,0,10.0,10.0,10.0,10.0,0.0,0.0,0.0,0.0,,,,-0.0794796049595,0.111684389412,-0.126212850213,11,28,-0.107889294624,-0.256800234318,0.300000011921,43,77,,,,,,,,,,,,,,,,,,,,,,,,,,,,,,,,,11.3980951309,11.4793682098,-1.0,-1.0,,,,,,,,,,,,,,,,,,,,,,,,,,,,,,,,,,,,,,,,,,,,,,,,,,,,,,,,,,,,,,,,,,,,,,,,,,,,,,,,,,,,,,,,,,,,,,,,,,,,,,,8408112,PX4FMU_V1,251760679a4bed86fdb10746062fde2cc23e460f,test,305419904.0
0.0159715078771,-0.0239552538842,-2.17874574661,0.0178152732551,0.00738011533394,-0.0319946184754,-0.0273358281702,-0.456087648869,-9.45791721344,0.0,-0.00156632135622,-2.30623626709,0.0,-0.0273358281702,-0.456087648869,-9.45791721344,0.0129857724532,0.0101970154792,-0.064267873764,-0.124061793089,0.181796982884,0.431578755379,1013.64996338,-3.32912015915,22.8799991608,0.0,0.0,0.0,0.0,0.496961951256,0.0,0.0,0.0,0.0,0.344205975533,0.0,0.0,0.0,10,1,0,20.0,1.02069330215,,,,,,,,,,,,,,,,,,,,-0.012825188227,0.0136022893712,-0.0143508147448,0.0,0,2,0,0.853495299816,0,1,0.0,0.0025641026441,0.0,0.0371287129819,0.99816006422,0.774436116219,-0.998161792755,0.0,7,0,10.0,10.0,10.0,10.0,0.0,0.0,0.0,0.0,,,,-0.0808400288224,0.112013109028,-0.127666711807,0,0,0.0,0.0,0.300000011921,0,77,,,,,,,,,,,,,,,,,,,,,,,,,,,,,,,,,11.3980951309,11.4791975021,-1.0,-1.0,,,,,,,,,,,,,,,,,,,,,,,,,,,,,,,,,,,,,,,,,,,,,,,,,,,,,,,,,,,,,,,,,,,,,,,,,,,,,,,,,,,,,,,,,,,,,,,,,,,,,,,8430094,PX4FMU_V1,251760679a4bed86fdb10746062fde2cc23e460f,test,305419904.0
0.0157423447818,-0.0239142291248,-2.17898750305,-0.0143087310717,-0.0169242098927,0.00766212120652,-0.0425717383623,0.175147429109,-9.79015922546,0.0,-0.00156632135622,-2.30623626709,0.0,-0.0425717383623,0.175147429109,-9.79015922546,-0.0119413807988,-0.0220569483936,0.0429164879024,-0.0974577516317,0.161823362112,0.429798513651,1013.64996338,-3.32912015915,22.8799991608,0.0,0.0,0.0,0.0,0.493667304516,0.0,0.0,0.0,0.0,0.343877583742,0.0,0.0,0.0,10,1,0,20.0,1.02081346512,,,,,,,,,,,,,,,,,,,,-0.00849989801645,0.016735130921,-0.020262632519,0.0,0,2,0,0.853495299816,0,1,0.0,0.0025641026441,0.0,0.0346534661949,1.0,0.77192980051,-0.996323525906,0.0,7,0,10.0,10.0,10.0,10.0,0.0,0.0,0.0,0.0,,,,-0.0796925649047,0.111807577312,-0.127422094345,-9,14,0.0865384638309,-0.134132608771,0.300000011921,51,77,,,,,,,,,,,,,,,,,,,,,,,,,,,,,,,,,11.3980951309,11.4790267944,-1.0,-1.0,,,,,,,,,,,,,,,,,,,,,,,,,,,,,,,,,,,,,,,,,,,,,,,,,,,,,,,,,,,,,,,,,,,,,,,,,,,,,,,,,,,,,,,,,,,,,,,,,,,,,,,8451429,PX4FMU_V1,251760679a4bed86fdb10746062fde2cc23e460f,test,305419904.0
0.0158943925053,-0.0240467581898,-2.17730283737,0.0206648148596,0.00330458814278,-0.00378812476993,-0.303032666445,-0.327530026436,-9.60490131378,0.0,-0.00156632135622,-2.30623626709,0.0,-0.303032666445,-0.327530026436,-9.60490131378,0.0283769071102,0.00947717484087,-0.042838819325,-0.0708537399769,0.154333248734,0.428018301725,1013.67999268,-3.57876133919,22.8799991608,0.0,0.0,0.0,0.0,0.495533913374,0.0,0.0,0.0,0.0,0.34193611145,0.0,0.0,0.0,10,1,0,20.0,1.02093410492,,,,,,,,,,,,,,,,,,,,-0.0131469527259,0.0141917690635,-0.0187982004136,0.0,0,2,0,0.853495299816,0,1,0.0,0.0025641026441,0.0,0.0371287129819,0.99816006422,0.774436116219,-0.998161792755,0.0,7,0,10.0,10.0,10.0,10.0,0.0,0.0,0.0,0.0,,,,-0.0804655924439,0.112472042441,-0.129109457135,0,0,0.0,0.0,0.300000011921,0,77,,,,,,,,,,,,,,,,,,,,,,,,,,,,,,,,,11.389714241,11.478937149,-1.0,-1.0,,,,,,,,,,,,,,,,,,,,,,,,,,,,,,,,,,,,,,,,,,,,,,,,,,,,,,,,,,,,,,,,,,,,,,,,,,,,,,,,,,,,,,,,,,,,,,,,,,,,,,,8472572,PX4FMU_V1,251760679a4bed86fdb10746062fde2cc23e460f,test,305419904.0
0.0157562177628,-0.023971831426,-2.17594075203,-0.0136056793854,-0.0160509087145,0.0123541075736,0.042858440429,0.193118587136,-9.75425624847,0.0,-0.00156632135622,-2.30623626709,0.0,0.042858440429,0.193118587136,-9.75425624847,-0.0085470257327,-0.0207321029156,0.0493900999427,-0.133235603571,0.170145705342,0.435139149427,1013.69995117,-3.74518537521,22.8799991608,0.0,0.0,0.0,0.0,0.496566325426,0.0,0.0,0.0,0.0,0.342864751816,0.0,0.0,0.0,10,1,0,20.0,1.02105462551,,,,,,,,,,,,,,,,,,,,-0.00860338006169,0.0166594516486,-0.02142354846,0.0,0,2,0,0.852505385876,0,1,0.0,0.0025641026441,0.0,0.0371287129819,1.0,0.77192980051,-0.998161792755,0.0,7,0,10.0,10.0,10.0,10.0,0.0,0.0,0.0,0.0,,,,-0.0797855257988,0.112098716199,-0.130469545722,18,22,-0.162692308426,-0.20059683919,0.300000011921,51,77,,,,,,,,,,,,,,,,,,,,,,,,,,,,,,,,,11.389714241,11.478758812,-1.0,-1.0,,,,,,,,,,,,,,,,,,,,,,,,,,,,,,,,,,,,,,,,,,,,,,,,,,,,,,,,,,,,,,,,,,,,,,,,,,,,,,,,,,,,,,,,,,,,,,,,,,,,,,,8494845,PX4FMU_V1,251760679a4bed86fdb10746062fde2cc23e460f,test,305419904.0
0.0158816874027,-0.0241578556597,-2.17258954048,0.0149475876242,-0.000497737200931,-0.00869237910956,-0.355300039053,-0.250314593315,-9.70185947418,0.0,-0.00156632135622,-2.30623626709,0.0,-0.355300039053,-0.250314593315,-9.70185947418,0.0215189084411,0.00910616479814,-0.0499649420381,-0.0497539751232,0.172642409801,0.434249043465,1013.7199707,-3.91160678864,22.8899993896,0.0,0.0,0.0,0.0,0.497392803431,0.0,0.0,0.0,0.0,0.341193497181,0.0,0.0,0.0,10,1,0,20.0,1.02111434937,,,,,,,,,,,,,,,,,,,,-0.0124001996592,0.0147589165717,-0.0187696442008,0.0,0,2,0,0.852505385876,0,1,0.0,0.0025641026441,0.0,0.0371287129819,0.99816006422,0.774436116219,-0.998161792755,0.0,7,0,10.0,10.0,10.0,10.0,0.0,0.0,0.0,0.0,,,,-0.0804385691881,0.113032393157,-0.133823335171,-13,10,0.0987024903297,-0.0786532983184,0.300000011921,0,77,,,,,,,,,,,,,,,,,,,,,,,,,,,,,,,,,11.3980951309,11.4785900116,-1.0,-1.0,,,,,,,,,,,,,,,,,,,,,,,,,,,,,,,,,,,,,,,,,,,,,,,,,,,,,,,,,,,,,,,,,,,,,,,,,,,,,,,,,,,,,,,,,,,,,,,,,,,,,,,8515929,PX4FMU_V1,251760679a4bed86fdb10746062fde2cc23e460f,test,305419904.0
0.0157865025103,-0.0240056142211,-2.17040491104,-0.0128713371232,-0.0132913254201,0.00791541580111,0.04226642102,0.230745792389,-9.7332611084,0.0,0.0,-2.30623626709,0.0,0.04226642102,0.230745792389,-9.7332611084,-0.0110905170441,-0.0198120363057,0.0464896075428,-0.0304889902472,0.167649000883,0.435139149427,1013.69000244,-3.66197371483,22.8899993896,0.0,0.0,0.0,0.0,0.500015318394,0.0,0.0,0.0,0.0,0.342913150787,0.0,0.0,0.0,10,1,0,20.0,1.02123498917,,,,,,,,,,,,,,,,,,,,-0.00858598295599,0.0173321701586,-0.0215904526412,0.0,0,2,0,0.852505385876,0,1,0.0,-0.0,0.0,0.0346534661949,1.0,0.774436116219,-0.998161792755,0.0,7,0,10.0,10.0,10.0,10.0,0.0,0.0,0.0,0.0,,,,-0.0789173617959,0.120033062994,-0.136020928621,0,0,0.0,0.0,0.300000011921,0,77,,,,,,,,,,,,,,,,,,,,,,,,,,,,,,,,,11.3980951309,11.4784297943,-1.0,-1.0,,,,,,,,,,,,,,,,,,,,,,,,,,,,,,,,,,,,,,,,,,,,,,,,,,,,,,,,,,,,,,,,,,,,,,,,,,,,,,,,,,,,,,,,,,,,,,,,,,,,,,,8538431,PX4FMU_V1,251760679a4bed86fdb10746062fde2cc23e460f,test,305419904.0
0.0158779453486,-0.0242063011974,-2.17288088799,0.0148850176483,-0.0031359710265,-0.00102674774826,-0.349410772324,-0.163192793727,-9.73770713806,0.0,-0.00156632135622,-2.30623626709,0.0,-0.349410772324,-0.163192793727,-9.73770713806,0.0224895216525,0.00570418173447,-0.0376819781959,-0.134152948856,0.171810179949,0.424457877874,1013.70996094,-3.82839655876,22.8899993896,0.0,0.0,0.0,0.0,0.50062161684,0.0,0.0,0.0,0.0,0.340608894825,0.0,0.0,0.0,10,1,0,20.0,1.02135527134,,,,,,,,,,,,,,,,,,,,-0.0123893311247,0.0151333371177,-0.0198758654296,0.0,0,2,0,0.852505385876,0,1,0.0,0.0025641026441,0.0,0.0371287129819,1.0,0.77192980051,-0.998161792755,0.0,7,0,10.0,10.0,10.0,10.0,0.0,0.0,0.0,0.0,,,,-0.0804175361991,0.11327432096,-0.133532509208,0,6,-0.00818181876093,-0.05592110008,0.300000011921,0,77,,,,,,,,,,,,,,,,,,,,,,,,,,,,,,,,,11.3980951309,11.4782524109,-1.0,-1.0,,,,,,,,,,,,,,,,,,,,,,,,,,,,,,,,,,,,,,,,,,,,,,,,,,,,,,,,,,,,,,,,,,,,,,,,,,,,,,,,,,,,,,,,,,,,,,,,,,,,,,,8559394,PX4FMU_V1,251760679a4bed86fdb10746062fde2cc23e460f,test,305419904.0
0.0159332491457,-0.0240383613855,-2.16885638237,-0.0113879134879,-0.00718524912372,-0.0192410908639,0.470112621784,0.110262960196,-9.63672637939,0.0,0.0,-2.30623626709,0.0,0.470112621784,0.110262960196,-9.63672637939,-0.0229029934853,-0.0175167452544,0.014237685129,-0.0791101381183,0.161823362112,0.430688619614,1013.69000244,-3.66197371483,22.8899993896,0.0,0.0,0.0,0.0,0.502194225788,0.0,0.0,0.0,0.0,0.342352777719,0.0,0.0,0.0,10,1,0,20.0,1.02147531509,,,,,,,,,,,,,,,,,,,,-0.00887418631464,0.0165596753359,-0.0177495442331,0.0,0,2,0,0.852505385876,0,1,0.0,-0.0,0.0,0.0346534661949,1.0,0.774436116219,-0.998161792755,0.0,7,0,10.0,10.0,10.0,10.0,0.0,0.0,0.0,0.0,,,,-0.0796508863568,0.12019687891,-0.137571379542,-3,-29,0.0358485728502,0.269852787256,0.300000011921,47,77,,,,,,,,,,,,,,,,,,,,,,,,,,,,,,,,,11.3980951309,11.4780836105,-1.0,-1.0,,,,,,,,,,,,,,,,,,,,,,,,,,,,,,,,,,,,,,,,,,,,,,,,,,,,,,,,,,,,,,,,,,,,,,,,,,,,,,,,,,,,,,,,,,,,,,,,,,,,,,,8580601,PX4FMU_V1,251760679a4bed86fdb10746062fde2cc23e460f,test,305419904.0
0.0158961284906,-0.0242761485279,-2.16815280914,0.0148540399969,-0.00411244342104,0.00363968499005,-0.407796621323,-0.239200174809,-9.65798282623,0.0,0.0,-2.30623626709,0.0,-0.407796621323,-0.239200174809,-9.65798282623,0.0234929323196,0.0051646232605,-0.0341102182865,-0.035075891763,0.165152296424,0.433358937502,1013.67999268,-3.57876133919,22.8899993896,0.0,0.0,0.0,0.0,0.501741945744,0.0,0.0,0.0,0.0,0.338988631964,0.0,0.0,0.0,10,1,0,20.0,1.02159559727,,,,,,,,,,,,,,,,,,,,-0.0122614810243,0.0163147822022,-0.0212874282151,0.0,0,2,0,0.852505385876,0,1,0.0,-0.0,0.0,0.0346534661949,1.0,0.774436116219,-0.998161792755,0.0,7,0,10.0,10.0,10.0,10.0,0.0,0.0,0.0,0.0,,,,-0.079465046525,0.121385887265,-0.13827650249,0,0,0.0,0.0,0.300000011921,0,77,,,,,,,,,,,,,,,,,,,,,,,,,,,,,,,,,11.3813333511,11.4779872894,-1.0,-1.0,,,,,,,,,,,,,,,,,,,,,,,,,,,,,,,,,,,,,,,,,,,,,,,,,,,,,,,,,,,,,,,,,,,,,,,,,,,,,,,,,,,,,,,,,,,,,,,,,,,,,,,8603915,PX4FMU_V1,251760679a4bed86fdb10746062fde2cc23e460f,test,305419904.0
0.0159787256271,-0.0240903310478,-2.17072176933,-0.00759981106967,-0.00525700813159,-0.0246255937964,0.400199830532,0.128665059805,-9.66153907776,0.0,0.0,-2.30623626709,0.0,0.400199830532,0.128665059805,-9.66153907776,-0.0173603128642,-0.0160514172167,0.00406802725047,-0.147913679481,0.172642409801,0.430688619614,1013.72998047,-3.99481654167,22.8999996185,0.0,0.0,0.0,0.0,0.503156900406,0.0,0.0,0.0,0.0,0.340071648359,0.0,0.0,0.0,10,1,0,20.0,1.0216550827,,,,,,,,,,,,,,,,,,,,-0.0093961879611,0.01634279266,-0.016662189737,0.0,0,2,0,0.852505385876,0,1,0.0,-0.0,0.0,0.0346534661949,1.0,0.774436116219,-0.998161792755,0.0,7,0,10.0,10.0,10.0,10.0,0.0,0.0,0.0,0.0,,,,-0.0798781812191,0.120456784964,-0.135706856847,10,4,-0.091452345252,-0.0416334271431,0.300000011921,47,77,,,,,,,,,,,,,,,,,,,,,,,,,,,,,,,,,11.3980951309,11.4778270721,-1.0,-1.0,,,,,,,,,,,,,,,,,,,,,,,,,,,,,,,,,,,,,,,,,,,,,,,,,,,,,,,,,,,,,,,,,,,,,,,,,,,,,,,,,,,,,,,,,,,,,,,,,,,,,,,8624919,PX4FMU_V1,251760679a4bed86fdb10746062fde2cc23e460f,test,305419904.0
0.0158865917474,-0.0243250578642,-2.16636753082,0.0107323918492,-0.00855081621557,0.00968778505921,-0.489988952875,-0.0688280016184,-9.75776672363,0.0,-0.00156632135622,-2.30623626709,0.0,-0.489988952875,-0.0688280016184,-9.75776672363,0.0214754082263,0.000276295875665,-0.0227935593575,-0.0873665586114,0.170977935195,0.425347983837,1013.69995117,-3.74518537521,22.8999996185,0.0,0.0,0.0,0.0,0.507198631763,0.0,0.0,0.0,0.0,0.341031968594,0.0,0.0,0.0,10,1,0,20.0,1.02177584171,,,,,,,,,,,,,,,,,,,,-0.0118616614491,0.015915364027,-0.0224601812661,0.0,0,2,0,0.852505385876,0,1,0.0,0.0025641026441,0.0,0.0371287129819,0.99816006422,0.774436116219,-0.998161792755,0.0,7,0,10.0,10.0,10.0,10.0,0.0,0.0,0.0,0.0,,,,-0.0805111601949,0.113875061274,-0.14004676044,10,-11,-0.09375,0.107985712588,0.300000011921,0,77,,,,,,,,,,,,,,,,,,,,,,,,,,,,,,,,,11.389714241,11.4776592255,-1.0,-1.0,,,,,,,,,,,,,,,,,,,,,,,,,,,,,,,,,,,,,,,,,,,,,,,,,,,,,,,,,,,,,,,,,,,,,,,,,,,,,,,,,,,,,,,,,,,,,,,,,,,,,,,8646661,PX4FMU_V1,251760679a4bed86fdb10746062fde2cc23e460f,test,305419904.0
0.0160118304193,-0.0241397190839,-2.16694092751,-0.00592163251713,-0.00247173476964,-0.0292019918561,0.468364298344,0.0132165662944,-9.58852386475,0.0,-0.00156632135622,-2.30623626709,0.0,0.468364298344,0.0132165662944,-9.58852386475,-0.01839026995,-0.0133027834818,-0.00568377133459,-0.124061793089,0.159326657653,0.431578755379,1013.70996094,-3.82839655876,22.8999996185,0.0,0.0,0.0,0.0,0.508852124214,0.0,0.0,0.0,0.0,0.34133964777,0.0,0.0,0.0,10,1,0,20.0,1.02189612389,,,,,,,,,,,,,,,,,,,,-0.00977747701108,0.0150045370683,-0.0165406726301,0.0,0,2,0,0.852505385876,0,1,0.0,0.0025641026441,0.0,0.0371287129819,0.99816006422,0.774436116219,-0.998161792755,0.0,7,0,10.0,10.0,10.0,10.0,0.0,0.0,0.0,0.0,,,,-0.0811329931021,0.112947784364,-0.13947314024,0,0,0.0,0.0,0.300000011921,0,77,,,,,,,,,,,,,,,,,,,,,,,,,,,,,,,,,11.3980951309,11.4774923325,-1.0,-1.0,,,,,,,,,,,,,,,,,,,,,,,,,,,,,,,,,,,,,,,,,,,,,,,,,,,,,,,,,,,,,,,,,,,,,,,,,,,,,,,,,,,,,,,,,,,,,,,,,,,,,,,8667306,PX4FMU_V1,251760679a4bed86fdb10746062fde2cc23e460f,test,305419904.0
0.0158680137247,-0.0243182480335,-2.16495919228,0.00464757531881,-0.0138690434396,0.0271315984428,-0.364545732737,-0.139548867941,-9.70943069458,0.0,-0.00156632135622,-2.30623626709,0.0,-0.364545732737,-0.139548867941,-9.70943069458,0.0120955891907,-0.0115336216986,0.0121867991984,-0.0736058652401,0.170977935195,0.433358937502,1013.69000244,-3.66197371483,22.8999996185,0.0,0.0,0.0,0.0,0.5105073452,0.0,0.0,0.0,0.0,0.340659976006,0.0,0.0,0.0,10,1,0,20.0,1.02201592922,,,,,,,,,,,,,,,,,,,,-0.0110599817708,0.0166025105864,-0.0252879466861,0.0,0,2,0,0.852505385876,0,1,0.0,0.0025641026441,0.0,0.0371287129819,0.99816006422,0.774436116219,-0.998161792755,0.0,7,0,10.0,10.0,10.0,10.0,0.0,0.0,0.0,0.0,,,,-0.0804292112589,0.113842576742,-0.141454696655,0,0,0.0,0.0,0.300000011921,0,77,,,,,,,,,,,,,,,,,,,,,,,,,,,,,,,,,11.3813333511,11.4773960114,-1.0,-1.0,,,,,,,,,,,,,,,,,,,,,,,,,,,,,,,,,,,,,,,,,,,,,,,,,,,,,,,,,,,,,,,,,,,,,,,,,,,,,,,,,,,,,,,,,,,,,,,,,,,,,,,8688715,PX4FMU_V1,251760679a4bed86fdb10746062fde2cc23e460f,test,305419904.0
0.0160333253443,-0.0242210868746,-2.16514611244,-0.0047669634223,-0.000417133123847,-0.0311756953597,0.455231547356,-0.0239931382239,-9.59699058533,0.0,-0.00156632135622,-2.30623626709,0.0,0.455231547356,-0.0239931382239,-9.59699058533,-0.0177501346916,-0.00765837356448,-0.0112872170284,-0.104796789587,0.16931347549,0.430688619614,1013.72998047,-3.99481654167,22.9099998474,0.0,0.0,0.0,0.0,0.511598587036,0.0,0.0,0.0,0.0,0.341087818146,0.0,0.0,0.0,10,1,0,20.0,1.0221363306,,,,,,,,,,,,,,,,,,,,-0.00994335394353,0.0147905917838,-0.0165139958262,0.0,0,2,0,0.851544082165,0,1,0.0,0.0025641026441,0.0,0.0371287129819,0.99816006422,0.774436116219,-0.998161792755,0.0,7,0,10.0,10.0,10.0,10.0,0.0,0.0,0.0,0.0,,,,-0.0812543034554,0.113356649876,-0.141268998384,0,0,0.0,0.0,0.300000011921,0,77,,,,,,,,,,,,,,,,,,,,,,,,,,,,,,,,,11.3980951309,11.4772377014,-1.0,-1.0,,,,,,,,,,,,,,,,,,,,,,,,,,,,,,,,,,,,,,,,,,,,,,,,,,,,,,,,,,,,,,,,,,,,,,,,,,,,,,,,,,,,,,,,,,,,,,,,,,,,,,,8710934,PX4FMU_V1,251760679a4bed86fdb10746062fde2cc23e460f,test,305419904.0
0.0158927030861,-0.0243549402803,-2.16341304779,0.00435482384637,-0.0139899272472,0.0268470495939,-0.330977648497,-0.277778536081,-9.69701480865,0.0,-0.00156632135622,-2.30623626709,0.0,-0.330977648497,-0.277778536081,-9.69701480865,0.0134582612664,-0.0134718883783,0.0176150724292,-0.0726884827018,0.160991117358,0.430688619614,1013.67999268,-3.57876133919,22.9099998474,0.0,0.0,0.0,0.0,0.513010382652,0.0,0.0,0.0,0.0,0.341115415096,0.0,0.0,0.0,10,1,0,20.0,1.02219629288,,,,,,,,,,,,,,,,,,,,-0.0110395215452,0.0166423022747,-0.0254772678018,0.0,0,2,0,0.851544082165,0,1,0.0,0.0025641026441,0.0,0.0371287129819,0.99816006422,0.774436116219,-0.998161792755,0.0,7,0,10.0,10.0,10.0,10.0,0.0,0.0,0.0,0.0,,,,-0.0805645734072,0.114027775824,-0.143001392484,0,0,0.0,0.0,0.300000011921,0,77,,,,,,,,,,,,,,,,,,,,,,,,,,,,,,,,,11.389714241,11.4770708084,-1.0,-1.0,,,,,,,,,,,,,,,,,,,,,,,,,,,,,,,,,,,,,,,,,,,,,,,,,,,,,,,,,,,,,,,,,,,,,,,,,,,,,,,,,,,,,,,,,,,,,,,,,,,,,,,8731897,PX4FMU_V1,251760679a4bed86fdb10746062fde2cc23e460f,test,305419904.0
0.0160983130336,-0.0243503358215,-2.16316890717,0.00680819898844,0.00456092040986,-0.0389933995903,0.180990129709,-0.328456640244,-9.54548454285,0.0,0.0,-2.30623626709,0.0,0.180990129709,-0.328456640244,-9.54548454285,-0.00188940344378,0.00628569163382,-0.0434079244733,-0.0818622857332,0.16931347549,0.429798513651,1013.67999268,-3.57876133919,22.9099998474,0.0,0.0,0.0,0.0,0.51241093874,0.0,0.0,0.0,0.0,0.338841348886,0.0,0.0,0.0,10,1,0,20.0,1.02231693268,,,,,,,,,,,,,,,,,,,,-0.011346901767,0.0152354827151,-0.015640495345,0.0,0,2,0,0.851544082165,0,1,0.0,-0.0,0.0,0.0346534661949,1.0,0.774436116219,-0.998161792755,0.0,7,0,10.0,10.0,10.0,10.0,0.0,0.0,0.0,0.0,,,,-0.0804756656289,0.12175694108,-0.143263369799,-1,27,0.017730589956,-0.245775774121,0.300000011921,43,77,,,,,,,,,,,,,,,,,,,,,,,,,,,,,,,,,11.389714241,11.4768953323,-1.0,-1.0,,,,,,,,,,,,,,,,,,,,,,,,,,,,,,,,,,,,,,,,,,,,,,,,,,,,,,,,,,,,,,,,,,,,,,,,,,,,,,,,,,,,,,,,,,,,,,,,,,,,,,,8752990,PX4FMU_V1,251760679a4bed86fdb10746062fde2cc23e460f,test,305419904.0
0.0158891249448,-0.0243782624602,-2.16278362274,0.00135613244493,-0.0155536858365,0.0303654298186,-0.35608625412,-0.218805164099,-9.68512630463,0.0,0.0,-2.30623626709,0.0,-0.35608625412,-0.218805164099,-9.68512630463,0.0117672160268,-0.0169686656445,0.0294595267624,-0.102044671774,0.180964767933,0.438699603081,1013.7199707,-3.91160678864,22.9200000763,0.0,0.0,0.0,0.0,0.51380610466,0.0,0.0,0.0,0.0,0.339311212301,0.0,0.0,0.0,10,1,0,20.0,1.02243685722,,,,,,,,,,,,,,,,,,,,-0.0105021819472,0.0178685188293,-0.0261017475277,0.0,0,2,0,0.851544082165,0,1,0.0,-0.0,0.0,0.0346534661949,1.0,0.774436116219,-0.998161792755,0.0,7,0,10.0,10.0,10.0,10.0,0.0,0.0,0.0,0.0,,,,-0.0794298872352,0.121896460652,-0.143646225333,2,38,-0.018834380433,-0.348834842443,0.300000011921,0,77,,,,,,,,,,,,,,,,,,,,,,,,,,,,,,,,,11.389714241,11.476729393,-1.0,-1.0,,,,,,,,,,,,,,,,,,,,,,,,,,,,,,,,,,,,,,,,,,,,,,,,,,,,,,,,,,,,,,,,,,,,,,,,,,,,,,,,,,,,,,,,,,,,,,,,,,,,,,,8775046,PX4FMU_V1,251760679a4bed86fdb10746062fde2cc23e460f,test,305419904.0
0.0160795878619,-0.0244575813413,-2.16478514671,0.00697838282213,0.00348189845681,-0.0405100286007,0.0333504416049,-0.332667320967,-9.60315895081,0.0,-0.00156632135622,-2.30623626709,0.0,0.0333504416049,-0.332667320967,-9.60315895081,0.00146180205047,0.00913839414716,-0.0528366975486,-0.123144410551,0.180132523179,0.433358937502,1013.66998291,-3.49554824829,22.9200000763,0.0,0.0,0.0,0.0,0.513495743275,0.0,0.0,0.0,0.0,0.337217777967,0.0,0.0,0.0,10,1,0,20.0,1.02255702019,,,,,,,,,,,,,,,,,,,,-0.011500637047,0.0144374966621,-0.0151683464646,0.0,0,2,0,0.851544082165,0,1,0.0,0.0025641026441,0.0,0.0371287129819,0.99816006422,0.774436116219,-0.998161792755,0.0,7,0,10.0,10.0,10.0,10.0,0.0,0.0,0.0,0.0,,,,-0.081488057971,0.114539571106,-0.141632333398,4,5,-0.0436971411109,-0.05060050264,0.300000011921,0,77,,,,,,,,,,,,,,,,,,,,,,,,,,,,,,,,,11.389714241,11.4766426086,-1.0,-1.0,,,,,,,,,,,,,,,,,,,,,,,,,,,,,,,,,,,,,,,,,,,,,,,,,,,,,,,,,,,,,,,,,,,,,,,,,,,,,,,,,,,,,,,,,,,,,,,,,,,,,,,8796482,PX4FMU_V1,251760679a4bed86fdb10746062fde2cc23e460f,test,305419904.0
0.0158907882869,-0.0244004800916,-2.16581511497,0.000218973800656,-0.0165038518608,0.0344022102654,-0.305400282145,-0.16280092299,-9.73607635498,0.0,-0.00156632135622,-2.30623626709,0.0,-0.305400282145,-0.16280092299,-9.73607635498,0.00813628267497,-0.0222216919065,0.0387101434171,-0.121309638023,0.14517866075,0.428908407688,1013.7199707,-3.91160678864,22.9200000763,0.0,0.0,0.0,0.0,0.512695252895,0.0,0.0,0.0,0.0,0.33653575182,0.0,0.0,0.0,10,1,0,20.0,1.02267885208,,,,,,,,,,,,,,,,,,,,-0.0104981865734,0.0169983636588,-0.0262503065169,0.0,0,2,0,0.851544082165,0,1,0.0,0.0025641026441,0.0,0.0371287129819,0.99816006422,0.774436116219,-0.998161792755,0.0,7,0,10.0,10.0,10.0,10.0,0.0,0.0,0.0,0.0,,,,-0.080536313355,0.114252798259,-0.140599831939,22,33,-0.102886088192,-0.149484917521,0.300000011921,43,77,,,,,,,,,,,,,,,,,,,,,,,,,,,,,,,,,11.3980951309,11.4764690399,-1.0,-1.0,,,,,,,,,,,,,,,,,,,,,,,,,,,,,,,,,,,,,,,,,,,,,,,,,,,,,,,,,,,,,,,,,,,,,,,,,,,,,,,,,,,,,,,,,,,,,,,,,,,,,,,8819303,PX4FMU_V1,251760679a4bed86fdb10746062fde2cc23e460f,test,305419904.0
0.0160509124398,-0.0245629511774,-2.16497945786,0.00706377299502,0.00231514312327,-0.0396294109523,-0.0352695733309,-0.327808797359,-9.58175468445,0.0,-0.00156632135622,-2.30623626709,0.0,-0.0352695733309,-0.327808797359,-9.58175468445,0.00325685623102,0.010699249804,-0.0564030706882,-0.147913679481,0.160991117358,0.439589679241,1013.72998047,-3.99481654167,22.9200000763,0.0,0.0,0.0,0.0,0.514498353004,0.0,0.0,0.0,0.0,0.335757225752,0.0,0.0,0.0,10,1,0,20.0,1.02273821831,,,,,,,,,,,,,,,,,,,,-0.0114928912371,0.0146576380357,-0.0152713498101,0.0,0,2,0,0.851544082165,0,1,0.0,0.0025641026441,0.0,0.0346534661949,1.0,0.77192980051,-0.996323525906,0.0,7,0,10.0,10.0,10.0,10.0,0.0,0.0,0.0,0.0,,,,-0.0813430845737,0.115066207945,-0.141438409686,0,0,0.0,0.0,0.300000011921,0,77,,,,,,,,,,,,,,,,,,,,,,,,,,,,,,,,,11.389714241,11.4762954712,-1.0,-1.0,,,,,,,,,,,,,,,,,,,,,,,,,,,,,,,,,,,,,,,,,,,,,,,,,,,,,,,,,,,,,,,,,,,,,,,,,,,,,,,,,,,,,,,,,,,,,,,,,,,,,,,8839754,PX4FMU_V1,251760679a4bed86fdb10746062fde2cc23e460f,test,305419904.0
0.0159201603383,-0.0243441089988,-2.16417241096,-0.00202791532502,-0.00961627345532,0.0223215185106,0.137233018875,-0.0690614655614,-9.60779190063,0.0,-0.00156632135622,-2.30623626709,0.0,0.137233018875,-0.0690614655614,-9.60779190063,0.00147650018334,-0.018732458353,0.0486463457346,-0.0745232477784,0.155997723341,0.431578755379,1013.7199707,-3.91160678864,22.9200000763,0.0,0.0,0.0,0.0,0.518128991127,0.0,0.0,0.0,0.0,0.338004142046,0.0,0.0,0.0,10,1,0,20.0,1.02285826206,,,,,,,,,,,,,,,,,,,,-0.0102268457413,0.0160665791482,-0.0246845632792,0.0,0,2,0,0.851544082165,0,1,0.0,0.0025641026441,0.0,0.0371287129819,0.99816006422,0.774436116219,-0.998161792755,0.0,7,0,10.0,10.0,10.0,10.0,0.0,0.0,0.0,0.0,,,,-0.080695964396,0.11397280544,-0.142242223024,0,0,0.0,0.0,0.300000011921,0,77,,,,,,,,,,,,,,,,,,,,,,,,,,,,,,,,,11.389714241,11.4761219025,-1.0,-1.0,,,,,,,,,,,,,,,,,,,,,,,,,,,,,,,,,,,,,,,,,,,,,,,,,,,,,,,,,,,,,,,,,,,,,,,,,,,,,,,,,,,,,,,,,,,,,,,,,,,,,,,8860909,PX4FMU_V1,251760679a4bed86fdb10746062fde2cc23e460f,test,305419904.0
0.0160404313356,-0.0246479250491,-2.16195082664,0.00615414837375,7.75009830249e-05,-0.0366238206625,-0.216390877962,-0.290825396776,-9.67586517334,0.0,-0.00156632135622,-2.30623626709,0.0,-0.216390877962,-0.290825396776,-9.67586517334,0.00395874772221,0.0103733325377,-0.0624979883432,-0.135987728834,0.176803588867,0.436919361353,1013.72998047,-3.99481654167,22.9200000763,0.0,0.0,0.0,0.0,0.521573603153,0.0,0.0,0.0,0.0,0.337420523167,0.0,0.0,0.0,10,1,0,20.0,1.02297830582,,,,,,,,,,,,,,,,,,,,-0.0113708637655,0.0150042008609,-0.0161765869707,0.0,0,2,0,0.851544082165,0,1,0.0,0.0025641026441,0.0,0.0371287129819,1.0,0.77192980051,-0.998161792755,0.0,7,0,10.0,10.0,10.0,10.0,0.0,0.0,0.0,0.0,,,,-0.08131403476,0.115494437516,-0.14446772635,0,0,0.0,0.0,0.300000011921,0,77,,,,,,,,,,,,,,,,,,,,,,,,,,,,,,,,,11.389714241,11.4759483337,-1.0,-1.0,,,,,,,,,,,,,,,,,,,,,,,,,,,,,,,,,,,,,,,,,,,,,,,,,,,,,,,,,,,,,,,,,,,,,,,,,,,,,,,,,,,,,,,,,,,,,,,,,,,,,,,8883424,PX4FMU_V1,251760679a4bed86fdb10746062fde2cc23e460f,test,305419904.0
0.0159490406513,-0.0243465472013,-2.16028928757,-0.00158997240942,-0.00572813022882,0.0168826170266,0.234041035175,0.074520163238,-9.58724784851,0.0,-0.00156632135622,-2.30623626709,0.0,0.234041035175,0.074520163238,-9.58724784851,0.00110501830932,-0.0158643759787,0.0530423559248,-0.0414975658059,0.192616045475,0.430688619614,1013.69000244,-3.66197371483,22.9200000763,0.0,0.0,0.0,0.0,0.523167669773,0.0,0.0,0.0,0.0,0.338108718395,0.0,0.0,0.0,10,1,0,20.0,1.02309966087,,,,,,,,,,,,,,,,,,,,-0.0103064579889,0.0155632747337,-0.0244512204081,0.0,0,2,0,0.851544082165,0,1,0.0,0.0025641026441,0.0,0.0371287129819,0.99816006422,0.774436116219,-0.998161792755,0.0,7,0,10.0,10.0,10.0,10.0,0.0,0.0,0.0,0.0,,,,-0.0808704197407,0.113989368081,-0.146125510335,0,0,0.0,0.0,0.300000011921,0,77,,,,,,,,,,,,,,,,,,,,,,,,,,,,,,,,,11.3980951309,11.4758701324,-1.0,-1.0,,,,,,,,,,,,,,,,,,,,,,,,,,,,,,,,,,,,,,,,,,,,,,,,,,,,,,,,,,,,,,,,,,,,,,,,,,,,,,,,,,,,,,,,,,,,,,,,,,,,,,,8904535,PX4FMU_V1,251760679a4bed86fdb10746062fde2cc23e460f,test,305419904.0
0.0160435773432,-0.0247115902603,-2.16060447693,0.0059598563239,-0.00859893951565,-0.0153324985877,-0.522686421871,-0.236845627427,-9.78292274475,0.0,-0.00156632135622,-2.30623626709,0.0,-0.522686421871,-0.236845627427,-9.78292274475,0.00934982858598,0.00433341320604,-0.0530512444675,-0.0488366037607,0.176803588867,0.43602925539,1013.7699585,-4.32764863968,22.9300003052,0.0,0.0,0.0,0.0,0.523282170296,0.0,0.0,0.0,0.0,0.337110251188,0.0,0.0,0.0,10,1,0,20.0,1.02315890789,,,,,,,,,,,,,,,,,,,,-0.0113489963114,0.0161737278104,-0.0195722915232,0.0,0,2,0,0.850522339344,0,1,0.0,0.0025641026441,0.0,0.0371287129819,1.0,0.77192980051,-0.998161792755,0.0,7,0,10.0,10.0,10.0,10.0,0.0,0.0,0.0,0.0,,,,-0.0813401192427,0.115814350545,-0.145814448595,0,0,0.0,0.0,0.300000011921,0,77,,,,,,,,,,,,,,,,,,,,,,,,,,,,,,,,,11.389714241,11.4756984711,-1.0,-1.0,,,,,,,,,,,,,,,,,,,,,,,,,,,,,,,,,,,,,,,,,,,,,,,,,,,,,,,,,,,,,,,,,,,,,,,,,,,,,,,,,,,,,,,,,,,,,,,,,,,,,,,8925551,PX4FMU_V1,251760679a4bed86fdb10746062fde2cc23e460f,test,305419904.0
0.0159928333014,-0.0243775267154,-2.16014695168,-0.000563343404792,-0.00628759898245,0.0157090239227,0.266513705254,-0.0475581474602,-9.62170600891,0.0,0.0,-2.30623626709,0.0,0.266513705254,-0.0475581474602,-9.62170600891,0.00186590198427,-0.0180727280676,0.0472636222839,-0.0726884827018,0.200938403606,0.424457877874,1013.69995117,-3.74518537521,22.9300003052,0.0,0.0,0.0,0.0,0.528474628925,0.0,0.0,0.0,0.0,0.33886307478,0.0,0.0,0.0,10,1,0,20.0,1.02327919006,,,,,,,,,,,,,,,,,,,,-0.010320045054,0.0166634526104,-0.0242989882827,0.0,0,2,0,0.850522339344,0,1,0.0,-0.0,0.0,0.0346534661949,1.0,0.774436116219,-0.998161792755,0.0,7,0,10.0,10.0,10.0,10.0,0.0,0.0,0.0,0.0,,,,-0.0799483135343,0.121892809868,-0.146284222603,-20,-17,0.157485678792,0.133906021714,0.300000011921,43,77,,,,,,,,,,,,,,,,,,,,,,,,,,,,,,,,,11.3813333511,11.4755268097,-1.0,-1.0,,,,,,,,,,,,,,,,,,,,,,,,,,,,,,,,,,,,,,,,,,,,,,,,,,,,,,,,,,,,,,,,,,,,,,,,,,,,,,,,,,,,,,,,,,,,,,,,,,,,,,,8947373,PX4FMU_V1,251760679a4bed86fdb10746062fde2cc23e460f,test,305419904.0
0.0160508323461,-0.0247687790543,-2.16279768944,0.00588356144726,-0.0108915995806,-0.0140834376216,-0.4469576478,-0.137205973268,-9.77252292633,0.0,-0.00156632135622,-2.30623626709,0.0,-0.4469576478,-0.137205973268,-9.77252292633,0.00979348551482,0.00154593598563,-0.0495332106948,-0.123144410551,0.121043846011,0.424457877874,1013.69995117,-3.74518537521,22.9300003052,0.0,0.0,0.0,0.0,0.529838562012,0.0,0.0,0.0,0.0,0.338633358479,0.0,0.0,0.0,10,1,0,20.0,1.02339923382,,,,,,,,,,,,,,,,,,,,-0.0113415764645,0.0165086258203,-0.019430745393,0.0,0,2,0,0.850522339344,0,1,0.0,0.0025641026441,0.0,0.0371287129819,0.99816006422,0.774436116219,-0.998161792755,0.0,7,0,10.0,10.0,10.0,10.0,0.0,0.0,0.0,0.0,,,,-0.0813593417406,0.116097837687,-0.143621727824,0,0,0.0,0.0,0.300000011921,0,77,,,,,,,,,,,,,,,,,,,,,,,,,,,,,,,,,11.3813333511,11.4753379822,-1.0,-1.0,,,,,,,,,,,,,,,,,,,,,,,,,,,,,,,,,,,,,,,,,,,,,,,,,,,,,,,,,,,,,,,,,,,,,,,,,,,,,,,,,,,,,,,,,,,,,,,,,,,,,,,8967991,PX4FMU_V1,251760679a4bed86fdb10746062fde2cc23e460f,test,305419904.0
0.0160646401346,-0.0244182869792,-2.15976023674,-0.00233020423912,0.00238207867369,-0.00770084001124,0.629750430584,0.0671811699867,-9.60696125031,0.0,-0.00156632135622,-2.30623626709,0.0,0.629750430584,0.0671811699867,-9.60696125031,-0.00531746633351,-0.00796785484999,0.0270747207105,-0.0809449031949,0.149339839816,0.435139149427,1013.70996094,-3.82839655876,22.9300003052,0.0,0.0,0.0,0.0,0.535687983036,0.0,0.0,0.0,0.0,0.341246336699,0.0,0.0,0.0,10,1,0,20.0,1.02352058887,,,,,,,,,,,,,,,,,,,,-0.0102858766913,0.0145556628704,-0.0208433512598,0.0,0,2,0,0.850522339344,0,1,0.0,0.0025641026441,0.0,0.0371287129819,0.99816006422,0.774436116219,-0.998161792755,0.0,7,0,10.0,10.0,10.0,10.0,0.0,0.0,0.0,0.0,,,,-0.0814523398876,0.114348717034,-0.146656513214,12,-15,-0.115108244121,0.141872286797,0.300000011921,0,77,,,,,,,,,,,,,,,,,,,,,,,,,,,,,,,,,11.3813333511,11.4752435684,-1.0,-1.0,,,,,,,,,,,,,,,,,,,,,,,,,,,,,,,,,,,,,,,,,,,,,,,,,,,,,,,,,,,,,,,,,,,,,,,,,,,,,,,,,,,,,,,,,,,,,,,,,,,,,,,8989151,PX4FMU_V1,251760679a4bed86fdb10746062fde2cc23e460f,test,305419904.0
0.0160696618259,-0.0248473789543,-2.15880632401,0.00189324247185,-0.0153471650556,-0.00883099343628,-0.567411422729,-0.134053245187,-9.83527183533,0.0,-0.00156632135622,-2.30623626709,0.0,-0.567411422729,-0.134053245187,-9.83527183533,0.00281481444836,-0.00179621228017,-0.04058239609,-0.0937882438302,0.178468048573,0.412886500359,1013.66998291,-3.49554824829,22.9300003052,0.0,0.0,0.0,0.0,0.535155594349,0.0,0.0,0.0,0.0,0.338866591454,0.0,0.0,0.0,10,1,0,20.0,1.02364063263,,,,,,,,,,,,,,,,,,,,-0.010839080438,0.0171395335346,-0.0208174344152,0.0,0,2,0,0.850522339344,0,1,0.0,0.0025641026441,0.0,0.0371287129819,0.99816006422,0.774436116219,-0.998161792755,0.0,7,0,10.0,10.0,10.0,10.0,0.0,0.0,0.0,0.0,,,,-0.0814843028784,0.116495400667,-0.147613883018,0,0,0.0,0.0,0.300000011921,0,77,,,,,,,,,,,,,,,,,,,,,,,,,,,,,,,,,11.389714241,11.475071907,-1.0,-1.0,,,,,,,,,,,,,,,,,,,,,,,,,,,,,,,,,,,,,,,,,,,,,,,,,,,,,,,,,,,,,,,,,,,,,,,,,,,,,,,,,,,,,,,,,,,,,,,,,,,,,,,9012118,PX4FMU_V1,251760679a4bed86fdb10746062fde2cc23e460f,test,305419904.0
0.0160942934453,-0.0245167836547,-2.15711736679,-0.00078728061635,0.0050197779201,-0.0122692827135,0.577038228512,0.0590339377522,-9.61524677277,0.0,0.0,-2.30623626709,0.0,0.577038228512,0.0590339377522,-9.61524677277,-0.00435608206317,-0.00453192321584,0.0189060661942,-0.0726884827018,0.175139114261,0.43602925539,1013.77996826,-4.41085529327,22.9300003052,0.0,0.0,0.0,0.0,0.534183502197,0.0,0.0,0.0,0.0,0.337799787521,0.0,0.0,0.0,10,1,0,20.0,1.02370131016,,,,,,,,,,,,,,,,,,,,-0.0103568499908,0.0152840297669,-0.0205570291728,0.0,0,2,0,0.850522339344,0,1,0.0,-0.0,0.0,0.0346534661949,1.0,0.774436116219,-0.998161792755,0.0,7,0,10.0,10.0,10.0,10.0,0.0,0.0,0.0,0.0,,,,-0.0804553627968,0.122589237988,-0.14931614697,-3,-16,0.0311538502574,0.149704799056,0.300000011921,0,77,,,,,,,,,,,,,,,,,,,,,,,,,,,,,,,,,11.3813333511,11.4748849869,-1.0,-1.0,,,,,,,,,,,,,,,,,,,,,,,,,,,,,,,,,,,,,,,,,,,,,,,,,,,,,,,,,,,,,,,,,,,,,,,,,,,,,,,,,,,,,,,,,,,,,,,,,,,,,,,9033413,PX4FMU_V1,251760679a4bed86fdb10746062fde2cc23e460f,test,305419904.0
0.0160800665617,-0.0249114725739,-2.15699958801,0.00425533065572,-0.0163337700069,-0.00446227286011,-0.608313202858,-0.184259369969,-9.8306684494,0.0,0.0,-2.30623626709,0.0,-0.608313202858,-0.184259369969,-9.8306684494,0.00759696308523,-0.00539690395817,-0.0378268919885,-0.0772753953934,0.185125932097,0.436919361353,1013.70996094,-3.82839655876,22.9300003052,0.0,0.0,0.0,0.0,0.540482521057,0.0,0.0,0.0,0.0,0.341224163771,0.0,0.0,0.0,10,1,0,20.0,1.02382075787,,,,,,,,,,,,,,,,,,,,-0.0110030742362,0.018316546455,-0.0217462200671,0.0,0,2,0,0.850522339344,0,1,0.0,-0.0,0.0,0.0346534661949,1.0,0.774436116219,-0.998161792755,0.0,7,0,10.0,10.0,10.0,10.0,0.0,0.0,0.0,0.0,,,,-0.0803837031126,0.124562740326,-0.149437069893,0,0,0.0,0.0,0.300000011921,0,77,,,,,,,,,,,,,,,,,,,,,,,,,,,,,,,,,11.3813333511,11.4747066498,-1.0,-1.0,,,,,,,,,,,,,,,,,,,,,,,,,,,,,,,,,,,,,,,,,,,,,,,,,,,,,,,,,,,,,,,,,,,,,,,,,,,,,,,,,,,,,,,,,,,,,,,,,,,,,,,9055520,PX4FMU_V1,251760679a4bed86fdb10746062fde2cc23e460f,test,305419904.0
0.0161361154169,-0.0245761685073,-2.15808916092,0.00048031762708,0.00747405830771,-0.016226567328,0.626526415348,0.0542062930763,-9.504737854,0.0,0.0,-2.30623626709,0.0,0.626526415348,0.0542062930763,-9.504737854,-0.0033575494308,-0.00125565729104,0.0132219167426,-0.0992925167084,0.14767536521,0.436919361353,1013.70996094,-3.82839655876,22.9300003052,0.0,0.0,0.0,0.0,0.54324901104,0.0,0.0,0.0,0.0,0.340242445469,0.0,0.0,0.0,10,1,0,20.0,1.02394104004,,,,,,,,,,,,,,,,,,,,-0.0105488067493,0.0150035796687,-0.0198178365827,0.0,0,2,0,0.850522339344,0,1,0.0,-0.0,0.0,0.0346534661949,1.0,0.774436116219,-0.998161792755,0.0,7,0,10.0,10.0,10.0,10.0,0.0,0.0,0.0,0.0,,,,-0.0806643515825,0.12288621068,-0.14834548533,0,0,0.0,0.0,0.300000011921,0,77,,,,,,,,,,,,,,,,,,,,,,,,,,,,,,,,,11.389714241,11.4745283127,-1.0,-1.0,,,,,,,,,,,,,,,,,,,,,,,,,,,,,,,,,,,,,,,,,,,,,,,,,,,,,,,,,,,,,,,,,,,,,,,,,,,,,,,,,,,,,,,,,,,,,,,,,,,,,,,9076641,PX4FMU_V1,251760679a4bed86fdb10746062fde2cc23e460f,test,305419904.0
0.0160627067089,-0.0248681809753,-2.15731596947,-0.000366394087905,-0.0227615665644,0.0155136622488,-0.69307923317,-0.137889772654,-9.83128643036,0.0,-0.00156632135622,-2.30623626709,0.0,-0.69307923317,-0.137889772654,-9.83128643036,0.00283094472252,-0.0220505241305,-0.00719671230763,-0.0901187136769,0.172642409801,0.412886500359,1013.69000244,-3.66197371483,22.9200000763,0.0,0.0,0.0,0.0,0.54298299551,0.0,0.0,0.0,0.0,0.338942974806,0.0,0.0,0.0,10,1,0,20.0,1.02406179905,,,,,,,,,,,,,,,,,,,,-0.0105423061177,0.0181171540171,-0.024692710489,0.0,0,2,0,0.850522339344,0,1,0.0,0.0025641026441,0.0,0.0346534661949,1.0,0.774436116219,-0.998161792755,0.0,7,0,10.0,10.0,10.0,10.0,0.0,0.0,0.0,0.0,,,,-0.0814610645175,0.116601154208,-0.149104401469,3,13,-0.0178443100303,-0.0625821202993,0.300000011921,43,77,,,,,,,,,,,,,,,,,,,,,,,,,,,,,,,,,11.3813333511,11.4744348526,-1.0,-1.0,,,,,,,,,,,,,,,,,,,,,,,,,,,,,,,,,,,,,,,,,,,,,,,,,,,,,,,,,,,,,,,,,,,,,,,,,,,,,,,,,,,,,,,,,,,,,,,,,,,,,,,9097866,PX4FMU_V1,251760679a4bed86fdb10746062fde2cc23e460f,test,305419904.0
0.0161650422961,-0.0246519837528,-2.15832924843,0.00221223966219,0.0106250587851,-0.0211778841913,0.473606437445,0.028040997684,-9.52267074585,0.0,-0.00156632135622,-2.30623626709,0.0,0.473606437445,0.028040997684,-9.52267074585,-0.00225872988813,0.00453920289874,0.00349726714194,-0.105714179575,0.157662183046,0.450270950794,1013.65997314,-3.41233468056,22.9200000763,0.0,0.0,0.0,0.0,0.54095262289,0.0,0.0,0.0,0.0,0.336461156607,0.0,0.0,0.0,10,1,0,20.0,1.0241818428,,,,,,,,,,,,,,,,,,,,-0.0109430504963,0.0136362090707,-0.0190368779004,0.0,0,2,0,0.849498093128,0,1,0.0,0.0025641026441,0.0,0.0371287129819,0.99816006422,0.774436116219,-0.998161792755,0.0,7,0,10.0,10.0,10.0,10.0,0.0,0.0,0.0,0.0,,,,-0.0819650739431,0.115518979728,-0.148090407252,0,0,0.0,0.0,0.300000011921,0,77,,,,,,,,,,,,,,,,,,,,,,,,,,,,,,,,,11.3813333511,11.4742479324,-1.0,-1.0,,,,,,,,,,,,,,,,,,,,,,,,,,,,,,,,,,,,,,,,,,,,,,,,,,,,,,,,,,,,,,,,,,,,,,,,,,,,,,,,,,,,,,,,,,,,,,,,,,,,,,,9120226,PX4FMU_V1,251760679a4bed86fdb10746062fde2cc23e460f,test,305419904.0
0.0160501580685,-0.0248677767813,-2.15763545036,-0.00217890110798,-0.0245502106845,0.0204259082675,-0.60935074091,-0.0545644946396,-9.76207447052,0.0,-0.00156632135622,-2.30623626709,0.0,-0.60935074091,-0.0545644946396,-9.76207447052,0.000960399280302,-0.0279963761568,0.00404777936637,-0.0855318233371,0.14517866075,0.429798513651,1013.72998047,-3.99481654167,22.9300003052,0.0,0.0,0.0,0.0,0.539440214634,0.0,0.0,0.0,0.0,0.336412340403,0.0,0.0,0.0,10,1,0,20.0,1.02424180508,,,,,,,,,,,,,,,,,,,,-0.0102982027456,0.0183493606746,-0.0253816116601,0.0,0,2,0,0.849498093128,0,1,0.0,0.0025641026441,0.0,0.0371287129819,0.99816006422,0.774436116219,-0.998161792755,0.0,7,0,10.0,10.0,10.0,10.0,0.0,0.0,0.0,0.0,,,,-0.0813958495855,0.116598725319,-0.148784816265,13,29,-0.0624263137579,-0.132435813546,0.300000011921,43,77,,,,,,,,,,,,,,,,,,,,,,,,,,,,,,,,,11.3980951309,11.4740953445,-1.0,-1.0,,,,,,,,,,,,,,,,,,,,,,,,,,,,,,,,,,,,,,,,,,,,,,,,,,,,,,,,,,,,,,,,,,,,,,,,,,,,,,,,,,,,,,,,,,,,,,,,,,,,,,,9141280,PX4FMU_V1,251760679a4bed86fdb10746062fde2cc23e460f,test,305419904.0
0.0161862745881,-0.0247304011136,-2.15798544884,0.00605527218431,0.014164512977,-0.0276528596878,0.550962209702,-0.0354466177523,-9.46555423737,0.0,-0.00156632135622,-2.30623626709,0.0,0.550962209702,-0.0354466177523,-9.46555423737,0.00363465189002,0.0145633295178,-0.010158566758,-0.0928708612919,0.137688547373,0.435139149427,1013.67999268,-3.57876133919,22.9300003052,0.0,0.0,0.0,0.0,0.540909290314,0.0,0.0,0.0,0.0,0.333314478397,0.0,0.0,0.0,10,1,0,20.0,1.02436220646,,,,,,,,,,,,,,,,,,,,-0.011456778273,0.0132271097973,-0.0181173570454,0.0,0,2,0,0.849498093128,0,1,0.0,0.0025641026441,0.0,0.0371287129819,0.99816006422,0.774436116219,-0.998161792755,0.0,7,0,10.0,10.0,10.0,10.0,0.0,0.0,0.0,0.0,,,,-0.0820737928152,0.115911513567,-0.148435235023,0,0,0.0,0.0,0.300000011921,0,77,,,,,,,,,,,,,,,,,,,,,,,,,,,,,,,,,11.389714241,11.4739351273,-1.0,-1.0,,,,,,,,,,,,,,,,,,,,,,,,,,,,,,,,,,,,,,,,,,,,,,,,,,,,,,,,,,,,,,,,,,,,,,,,,,,,,,,,,,,,,,,,,,,,,,,,,,,,,,,9164087,PX4FMU_V1,251760679a4bed86fdb10746062fde2cc23e460f,test,305419904.0
0.0160893145949,-0.0248524621129,-2.15713739395,-0.00479061808437,-0.02687837556,0.0245723035187,-0.494344890118,-0.121920317411,-9.76059341431,0.0,-0.00156632135622,-2.30623626709,0.0,-0.494344890118,-0.121920317411,-9.76059341431,-0.00566381122917,-0.0350198708475,0.0155158983544,-0.0818622857332,0.177635833621,0.418227136135,1013.67999268,-3.57876133919,22.9300003052,0.0,0.0,0.0,0.0,0.539839804173,0.0,0.0,0.0,0.0,0.334624886513,0.0,0.0,0.0,10,1,0,20.0,1.02448308468,,,,,,,,,,,,,,,,,,,,-0.00998463202268,0.0186421498656,-0.0260782931,0.0,0,2,0,0.849498093128,0,1,0.0,0.0025641026441,0.0,0.0371287129819,0.99816006422,0.774436116219,-0.998161792755,0.0,7,0,10.0,10.0,10.0,10.0,0.0,0.0,0.0,0.0,,,,-0.081595480442,0.116522789001,-0.149282976985,0,0,0.0,0.0,0.300000011921,0,77,,,,,,,,,,,,,,,,,,,,,,,,,,,,,,,,,11.389714241,11.47377491,-1.0,-1.0,,,,,,,,,,,,,,,,,,,,,,,,,,,,,,,,,,,,,,,,,,,,,,,,,,,,,,,,,,,,,,,,,,,,,,,,,,,,,,,,,,,,,,,,,,,,,,,,,,,,,,,9184607,PX4FMU_V1,251760679a4bed86fdb10746062fde2cc23e460f,test,305419904.0
0.0161711014807,-0.0249672904611,-2.1574614048,0.00865460000932,0.00975187309086,-0.0336914658546,0.170260235667,-0.261094003916,-9.63692474365,0.0,-0.00156632135622,-2.30623626709,0.0,0.170260235667,-0.261094003916,-9.63692474365,0.0106916455552,0.0243835188448,-0.0357765778899,-0.0781927853823,0.16931347549,0.415556818247,1013.70996094,-3.82839655876,22.9200000763,0.0,0.0,0.0,0.0,0.541741788387,0.0,0.0,0.0,0.0,0.332037121058,0.0,0.0,0.0,10,1,0,20.0,1.02460300922,,,,,,,,,,,,,,,,,,,,-0.011785316281,0.0139548145235,-0.0172904320061,0.0,0,2,0,0.849498093128,0,1,0.0,0.0025641026441,0.0,0.0371287129819,0.99816006422,0.774436116219,-0.998161792755,0.0,7,0,10.0,10.0,10.0,10.0,0.0,0.0,0.0,0.0,,,,-0.0820016786456,0.117096602917,-0.148961007595,18,-12,-0.164701193571,0.110454551876,0.300000011921,0,77,,,,,,,,,,,,,,,,,,,,,,,,,,,,,,,,,11.389714241,11.4736909866,-1.0,-1.0,,,,,,,,,,,,,,,,,,,,,,,,,,,,,,,,,,,,,,,,,,,,,,,,,,,,,,,,,,,,,,,,,,,,,,,,,,,,,,,,,,,,,,,,,,,,,,,,,,,,,,,9205923,PX4FMU_V1,251760679a4bed86fdb10746062fde2cc23e460f,test,305419904.0
0.016156969592,-0.0248562134802,-2.15758347511,-0.00298945815302,-0.0260176062584,0.0224576834589,-0.32937374711,-0.216335847974,-9.68244361877,0.0,-0.00156632135622,-2.30623626709,0.0,-0.32937374711,-0.216335847974,-9.68244361877,-0.00715693691745,-0.0402798987925,0.0196348857135,-0.0974577516317,0.125205025077,0.445820450783,1013.7199707,-3.91160678864,22.9200000763,0.0,0.0,0.0,0.0,0.544309735298,0.0,0.0,0.0,0.0,0.334977298975,0.0,0.0,0.0,10,1,0,20.0,1.02472305298,,,,,,,,,,,,,,,,,,,,-0.010262299329,0.0185326207429,-0.0256943255663,0.0,0,2,0,0.849498093128,0,1,0.0,0.0025641026441,0.0,0.0371287129819,0.99816006422,0.774436116219,-0.998161792755,0.0,7,0,10.0,10.0,10.0,10.0,0.0,0.0,0.0,0.0,,,,-0.0819302201271,0.116541013122,-0.148837804794,15,5,-0.139763727784,-0.0464578382671,0.300000011921,67,77,,,,,,,,,,,,,,,,,,,,,,,,,,,,,,,,,11.389714241,11.47352314,-1.0,-1.0,,,,,,,,,,,,,,,,,,,,,,,,,,,,,,,,,,,,,,,,,,,,,,,,,,,,,,,,,,,,,,,,,,,,,,,,,,,,,,,,,,,,,,,,,,,,,,,,,,,,,,,9228129,PX4FMU_V1,251760679a4bed86fdb10746062fde2cc23e460f,test,305419904.0
0.0161515511572,-0.0250923186541,-2.15569734573,0.00699825584888,0.00880874041468,-0.0322248674929,-0.0575542673469,-0.130627691746,-9.68555831909,0.0,-0.00156632135622,-2.30623626709,0.0,-0.0575542673469,-0.130627691746,-9.68555831909,0.0156744234264,0.0286465547979,-0.0416507273912,-0.0901187136769,0.225905448198,0.424457877874,1013.7199707,-3.91160678864,22.9300003052,0.0,0.0,0.0,0.0,0.545758962631,0.0,0.0,0.0,0.0,0.333095699549,0.0,0.0,0.0,10,1,0,20.0,1.02478313446,,,,,,,,,,,,,,,,,,,,-0.0115590393543,0.0141589585692,-0.0177751407027,0.0,0,2,0,0.849498093128,0,1,0.0,0.0025641026441,0.0,0.0346534661949,1.0,0.77192980051,-0.996323525906,0.0,7,0,10.0,10.0,10.0,10.0,0.0,0.0,0.0,0.0,,,,-0.0819174349308,0.117723807693,-0.150725796819,0,0,0.0,0.0,0.300000011921,0,77,,,,,,,,,,,,,,,,,,,,,,,,,,,,,,,,,11.389714241,11.4733552933,-1.0,-1.0,,,,,,,,,,,,,,,,,,,,,,,,,,,,,,,,,,,,,,,,,,,,,,,,,,,,,,,,,,,,,,,,,,,,,,,,,,,,,,,,,,,,,,,,,,,,,,,,,,,,,,,9249170,PX4FMU_V1,251760679a4bed86fdb10746062fde2cc23e460f,test,305419904.0
0.0161962993443,-0.0247513074428,-2.15528273582,-0.00108177610673,-0.0129052614793,0.0195994228125,0.0276995804161,-0.107816949487,-9.63368034363,0.0,-0.00156632135622,-2.30623626709,0.0,0.0276995804161,-0.107816949487,-9.63368034363,-0.00817667599767,-0.0335298739374,0.0366281569004,-0.0947056040168,0.227569922805,0.430688619614,1013.66998291,-3.49554824829,22.9300003052,0.0,0.0,0.0,0.0,0.546110332012,0.0,0.0,0.0,0.0,0.334710270166,0.0,0.0,0.0,10,1,0,20.0,1.0249029398,,,,,,,,,,,,,,,,,,,,-0.0105381896719,0.0167601779103,-0.0256106443703,0.0,0,2,0,0.849498093128,0,1,0.0,0.0025641026441,0.0,0.0346534661949,1.0,0.774436116219,-0.998161792755,0.0,7,0,10.0,10.0,10.0,10.0,0.0,0.0,0.0,0.0,,,,-0.0821447819471,0.116019189358,-0.151138201356,0,0,0.0,0.0,0.300000011921,0,77,,,,,,,,,,,,,,,,,,,,,,,,,,,,,,,,,11.3980951309,11.4731960297,-1.0,-1.0,,,,,,,,,,,,,,,,,,,,,,,,,,,,,,,,,,,,,,,,,,,,,,,,,,,,,,,,,,,,,,,,,,,,,,,,,,,,,,,,,,,,,,,,,,,,,,,,,,,,,,,9270509,PX4FMU_V1,251760679a4bed86fdb10746062fde2cc23e460f,test,305419904.0
0.0161950942129,-0.0251538529992,-2.15668392181,0.00565913226455,0.00491115963086,-0.0255425870419,-0.136649921536,-0.151663184166,-9.70746421814,0.0,-0.00156632135622,-2.30623626709,0.0,-0.136649921536,-0.151663184166,-9.70746421814,0.0116459121928,0.0253888648003,-0.0354918986559,-0.0947056040168,0.124372787774,0.438699603081,1013.66998291,-3.49554824829,22.9300003052,0.0,0.0,0.0,0.0,0.54394865036,0.0,0.0,0.0,0.0,0.329860389233,0.0,0.0,0.0,10,1,0,20.0,1.02502298355,,,,,,,,,,,,,,,,,,,,-0.011412249878,0.0147054987028,-0.0186296273023,0.0,0,2,0,0.849498093128,0,1,0.0,0.0025641026441,0.0,0.0371287129819,0.99816006422,0.774436116219,-0.998161792755,0.0,7,0,10.0,10.0,10.0,10.0,0.0,0.0,0.0,0.0,,,,-0.0821274071932,0.118030384183,-0.149740099907,0,0,0.0,0.0,0.300000011921,0,77,,,,,,,,,,,,,,,,,,,,,,,,,,,,,,,,,11.3813333511,11.4730205536,-1.0,-1.0,,,,,,,,,,,,,,,,,,,,,,,,,,,,,,,,,,,,,,,,,,,,,,,,,,,,,,,,,,,,,,,,,,,,,,,,,,,,,,,,,,,,,,,,,,,,,,,,,,,,,,,9292605,PX4FMU_V1,251760679a4bed86fdb10746062fde2cc23e460f,test,305419904.0
0.0162299890071,-0.0247758962214,-2.15674233437,-0.00064841931453,-0.0102322427556,0.0156953595579,0.197884947062,-0.0814678072929,-9.58184432983,0.0,-0.00156632135622,-2.30623626709,0.0,0.197884947062,-0.0814678072929,-9.58184432983,-0.00799211859703,-0.0320351421833,0.0351214036345,-0.0910360962152,0.125205025077,0.43602925539,1013.70996094,-3.82839655876,22.9300003052,0.0,0.0,0.0,0.0,0.54657304287,0.0,0.0,0.0,0.0,0.33277413249,0.0,0.0,0.0,10,1,0,20.0,1.02514433861,,,,,,,,,,,,,,,,,,,,-0.0106149502099,0.0164284538478,-0.0248061940074,0.0,0,2,0,0.849498093128,0,1,0.0,0.0025641026441,0.0,0.0371287129819,0.99816006422,0.774436116219,-0.998161792755,0.0,7,0,10.0,10.0,10.0,10.0,0.0,0.0,0.0,0.0,,,,-0.0823018848896,0.116140477359,-0.149679258466,0,0,0.0,0.0,0.300000011921,0,77,,,,,,,,,,,,,,,,,,,,,,,,,,,,,,,,,11.389714241,11.4729375839,-1.0,-1.0,,,,,,,,,,,,,,,,,,,,,,,,,,,,,,,,,,,,,,,,,,,,,,,,,,,,,,,,,,,,,,,,,,,,,,,,,,,,,,,,,,,,,,,,,,,,,,,,,,,,,,,9313953,PX4FMU_V1,251760679a4bed86fdb10746062fde2cc23e460f,test,305419904.0
0.0162108782679,-0.0252055507153,-2.15369391441,0.00553314480931,0.00439580157399,-0.0282289460301,-0.133902072906,-0.156023591757,-9.74076938629,0.0,-0.00156632135622,-2.30623626709,0.0,-0.133902072906,-0.156023591757,-9.74076938629,0.0121179074049,0.0248430129141,-0.0394131094217,-0.101127289236,0.225905448198,0.434249043465,1013.69000244,-3.66197371483,22.9300003052,0.0,0.0,0.0,0.0,0.547020375729,0.0,0.0,0.0,0.0,0.328707396984,0.0,0.0,0.0,10,1,0,20.0,1.0252648592,,,,,,,,,,,,,,,,,,,,-0.0114091318101,0.0148065602407,-0.0186752658337,0.0,0,2,0,0.848569214344,0,1,0.0,0.0025641026441,0.0,0.0371287129819,0.99816006422,0.774436116219,-0.998161792755,0.0,7,0,10.0,10.0,10.0,10.0,0.0,0.0,0.0,0.0,,,,-0.0822294130921,0.118292421103,-0.152730718255,-5,-10,0.0486895181239,0.0928681716323,0.300000011921,71,77,,,,,,,,,,,,,,,,,,,,,,,,,,,,,,,,,11.3813333511,11.4727630615,-1.0,-1.0,,,,,,,,,,,,,,,,,,,,,,,,,,,,,,,,,,,,,,,,,,,,,,,,,,,,,,,,,,,,,,,,,,,,,,,,,,,,,,,,,,,,,,,,,,,,,,,,,,,,,,,9336388,PX4FMU_V1,251760679a4bed86fdb10746062fde2cc23e460f,test,305419904.0
0.0162730626762,-0.0248055476695,-2.15432786942,0.00169720919803,-0.00946079287678,0.0151652013883,0.207711070776,-0.238059014082,-9.62080383301,0.0,-0.00156632135622,-2.30623626709,0.0,0.207711070776,-0.238059014082,-9.62080383301,-0.00506522459909,-0.0328677371144,0.0316498801112,-0.0928708612919,0.131030678749,0.445820450783,1013.72998047,-3.99481654167,22.9300003052,0.0,0.0,0.0,0.0,0.547528922558,0.0,0.0,0.0,0.0,0.330286711454,0.0,0.0,0.0,10,1,0,20.0,1.02532470226,,,,,,,,,,,,,,,,,,,,-0.0109503017738,0.0163478124887,-0.0250889323652,0.0,0,2,0,0.848569214344,0,1,0.0,0.0025641026441,0.0,0.0371287129819,0.99816006422,0.774436116219,-0.998161792755,0.0,7,0,10.0,10.0,10.0,10.0,0.0,0.0,0.0,0.0,,,,-0.0825358778238,0.116291612387,-0.152094349265,0,0,0.0,0.0,0.300000011921,0,77,,,,,,,,,,,,,,,,,,,,,,,,,,,,,,,,,11.3980951309,11.4726142883,-1.0,-1.0,,,,,,,,,,,,,,,,,,,,,,,,,,,,,,,,,,,,,,,,,,,,,,,,,,,,,,,,,,,,,,,,,,,,,,,,,,,,,,,,,,,,,,,,,,,,,,,,,,,,,,,9357066,PX4FMU_V1,251760679a4bed86fdb10746062fde2cc23e460f,test,305419904.0
0.0161919761449,-0.0253062024713,-2.15369319916,0.000444743520347,-0.00939720310271,-0.0144782047719,-0.373254656792,-0.00371037423611,-9.87929058075,0.0,-0.00156632135622,-2.30623626709,0.0,-0.373254656792,-0.00371037423611,-9.87929058075,0.00965144578367,0.0118711506948,-0.0299344360828,-0.0910360962152,0.122708320618,0.444040209055,1013.69995117,-3.74518537521,22.9300003052,0.0,0.0,0.0,0.0,0.550290584564,0.0,0.0,0.0,0.0,0.329656332731,0.0,0.0,0.0,10,1,0,20.0,1.02544486523,,,,,,,,,,,,,,,,,,,,-0.0107353385538,0.0166650768369,-0.0207380838692,0.0,0,2,0,0.848569214344,0,1,0.0,0.0025641026441,0.0,0.0371287129819,0.99816006422,0.774436116219,-0.998161792755,0.0,7,0,10.0,10.0,10.0,10.0,0.0,0.0,0.0,0.0,,,,-0.0821347907186,0.118795692921,-0.152732089162,0,0,0.0,0.0,0.300000011921,0,77,,,,,,,,,,,,,,,,,,,,,,,,,,,,,,,,,11.3813333511,11.4724397659,-1.0,-1.0,,,,,,,,,,,,,,,,,,,,,,,,,,,,,,,,,,,,,,,,,,,,,,,,,,,,,,,,,,,,,,,,,,,,,,,,,,,,,,,,,,,,,,,,,,,,,,,,,,,,,,,9378230,PX4FMU_V1,251760679a4bed86fdb10746062fde2cc23e460f,test,305419904.0
0.016302421689,-0.0248380973935,-2.15249419212,0.00210824422538,-0.00532590365037,0.0102510731667,0.36722227931,-0.147588148713,-9.54207801819,0.0,0.0,-2.30623626709,0.0,0.36722227931,-0.147588148713,-9.54207801819,-0.00429903157055,-0.0270669981837,0.0298257954419,-0.101127289236,0.205931812525,0.429798513651,1013.69995117,-3.74518537521,22.9300003052,0.0,0.0,0.0,0.0,0.550978660583,0.0,0.0,0.0,0.0,0.330153942108,0.0,0.0,0.0,10,1,0,20.0,1.02556502819,,,,,,,,,,,,,,,,,,,,-0.0108684683219,0.0168378446251,-0.0246293265373,0.0,0,2,0,0.848569214344,0,1,0.0,-0.0,0.0,0.0346534661949,1.0,0.774436116219,-0.998161792755,0.0,7,0,10.0,10.0,10.0,10.0,0.0,0.0,0.0,0.0,,,,-0.08149535954,0.124195992947,-0.153944432735,-9,4,0.0410321205854,-0.0313929691911,0.300000011921,47,77,,,,,,,,,,,,,,,,,,,,,,,,,,,,,,,,,11.3980951309,11.4722824097,-1.0,-1.0,,,,,,,,,,,,,,,,,,,,,,,,,,,,,,,,,,,,,,,,,,,,,,,,,,,,,,,,,,,,,,,,,,,,,,,,,,,,,,,,,,,,,,,,,,,,,,,,,,,,,,,9401121,PX4FMU_V1,251760679a4bed86fdb10746062fde2cc23e460f,test,305419904.0
0.0161987841129,-0.0253835637122,-2.15157413483,-0.00355466199107,-0.0155762713403,-0.0111867710948,-0.56240427494,-0.0415665134788,-9.84504508972,0.0,-0.00156632135622,-2.30623626709,0.0,-0.56240427494,-0.0415665134788,-9.84504508972,3.32278432325e-06,0.00481390906498,-0.0287662800401,-0.0855318233371,0.175971344113,0.417337030172,1013.69995117,-3.74518537521,22.9300003052,0.0,0.0,0.0,0.0,0.551684737206,0.0,0.0,0.0,0.0,0.32815271616,0.0,0.0,0.0,10,1,0,20.0,1.02568531036,,,,,,,,,,,,,,,,,,,,-0.0102219581604,0.0175189711154,-0.0215497352183,0.0,0,2,0,0.848569214344,0,1,0.0,0.0025641026441,0.0,0.0371287129819,0.99816006422,0.774436116219,-0.998161792755,0.0,7,0,10.0,10.0,10.0,10.0,0.0,0.0,0.0,0.0,,,,-0.0821851119399,0.119185045362,-0.154851675034,0,0,0.0,0.0,0.300000011921,0,77,,,,,,,,,,,,,,,,,,,,,,,,,,,,,,,,,11.389714241,11.47219944,-1.0,-1.0,,,,,,,,,,,,,,,,,,,,,,,,,,,,,,,,,,,,,,,,,,,,,,,,,,,,,,,,,,,,,,,,,,,,,,,,,,,,,,,,,,,,,,,,,,,,,,,,,,,,,,,9421618,PX4FMU_V1,251760679a4bed86fdb10746062fde2cc23e460f,test,305419904.0
0.0162994954735,-0.0249131899327,-2.15209460258,0.0075953877531,0.00948644429445,-0.00443549640477,0.690216600895,-0.0785838291049,-9.50406265259,0.0,-0.00156632135622,-2.30623626709,0.0,0.690216600895,-0.0785838291049,-9.50406265259,0.00450926506892,-0.00498710339889,0.0177821554244,-0.10296202451,0.163487836719,0.450270950794,1013.67999268,-3.57876133919,22.9300003052,0.0,0.0,0.0,0.0,0.551668643951,0.0,0.0,0.0,0.0,0.327507972717,0.0,0.0,0.0,10,1,0,20.0,1.02574622631,,,,,,,,,,,,,,,,,,,,-0.0117364721373,0.0139549924061,-0.0224839691073,0.0,0,2,0,0.848569214344,0,1,0.0,0.0025641026441,0.0,0.0371287129819,0.99816006422,0.774436116219,-0.998161792755,0.0,7,0,10.0,10.0,10.0,10.0,0.0,0.0,0.0,0.0,,,,-0.0826851651073,0.11683254689,-0.154328614473,0,0,0.0,0.0,0.300000011921,0,77,,,,,,,,,,,,,,,,,,,,,,,,,,,,,,,,,11.3813333511,11.4720344543,-1.0,-1.0,,,,,,,,,,,,,,,,,,,,,,,,,,,,,,,,,,,,,,,,,,,,,,,,,,,,,,,,,,,,,,,,,,,,,,,,,,,,,,,,,,,,,,,,,,,,,,,,,,,,,,,9442948,PX4FMU_V1,251760679a4bed86fdb10746062fde2cc23e460f,test,305419904.0
0.0161779839545,-0.0254372283816,-2.15210986137,-0.00605185842142,-0.01965203695,-0.0094786696136,-0.508723199368,-0.0347189642489,-9.91199588776,0.0,-0.00156632135622,-2.30623626709,0.0,-0.508723199368,-0.0347189642489,-9.91199588776,-0.00212247506715,-0.00282514374703,-0.0277643240988,-0.101127289236,0.178468048573,0.443150103092,1013.69995117,-3.74518537521,22.9300003052,0.0,0.0,0.0,0.0,0.550674974918,0.0,0.0,0.0,0.0,0.328100293875,0.0,0.0,0.0,10,1,0,20.0,1.02586662769,,,,,,,,,,,,,,,,,,,,-0.00988325849175,0.0180836226791,-0.0217256229371,0.0,0,2,0,0.848569214344,0,1,0.0,0.0025641026441,0.0,0.0346534661949,1.0,0.774436116219,-0.998161792755,0.0,7,0,10.0,10.0,10.0,10.0,0.0,0.0,0.0,0.0,,,,-0.0820769295096,0.119452759624,-0.154316157103,0,0,0.0,0.0,0.300000011921,0,77,,,,,,,,,,,,,,,,,,,,,,,,,,,,,,,,,11.389714241,11.4718780518,-1.0,-1.0,,,,,,,,,,,,,,,,,,,,,,,,,,,,,,,,,,,,,,,,,,,,,,,,,,,,,,,,,,,,,,,,,,,,,,,,,,,,,,,,,,,,,,,,,,,,,,,,,,,,,,,9464397,PX4FMU_V1,251760679a4bed86fdb10746062fde2cc23e460f,test,305419904.0
