ATT_Roll,ATT_Pitch,ATT_Yaw,ATT_RollRate,ATT_PitchRate,ATT_YawRate,ATT_GX,ATT_GY,ATT_GZ,ATSP_RollSP,ATSP_PitchSP,ATSP_YawSP,ATSP_ThrustSP,IMU_AccX,IMU_AccY,IMU_AccZ,IMU_GyroX,IMU_GyroY,IMU_GyroZ,IMU_MagX,IMU_MagY,IMU_MagZ,SENS_BaroPres,SENS_BaroAlt,SENS_BaroTemp,SENS_DiffPres,SENS_DiffPresFilt,LPOS_X,LPOS_Y,LPOS_Z,LPOS_Dist,LPOS_DistR,LPOS_VX,LPOS_VY,LPOS_VZ,LPOS_RLat,LPOS_RLon,LPOS_RAlt,LPOS_PFlg,LPOS_LFlg,LPOS_GFlg,LPOS_EPH,LPOS_EPV,LPSP_X,LPSP_Y,LPSP_Z,LPSP_Yaw,GPS_GPSTime,GPS_Fix,GPS_EPH,GPS_EPV,GPS_Lat,GPS_Lon,GPS_Alt,GPS_VelN,GPS_VelE,GPS_VelD,GPS_Cog,GPS_nSat,GPS_SNR,GPS_N,GPS_J,ATTC_Roll,ATTC_Pitch,ATTC_Yaw,ATTC_Thrust,STAT_MainState,STAT_ArmState,STAT_FailsafeState,STAT_BatRem,STAT_BatWarn,STAT_Landed,RC_Ch0,RC_Ch1,RC_Ch2,RC_Ch3,RC_Ch4,RC_Ch5,RC_Ch6,RC_Ch7,RC_Count,RC_SignalLost,OUT0_Out0,OUT0_Out1,OUT0_Out2,OUT0_Out3,OUT0_Out4,OUT0_Out5,OUT0_Out6,OUT0_Out7,AIRS_IndSpeed,AIRS_TrueSpeed,AIRS_AirTemp,ARSP_RollRateSP,ARSP_PitchRateSP,ARSP_YawRateSP,FLOW_RawX,FLOW_RawY,FLOW_CompX,FLOW_CompY,FLOW_Dist,FLOW_Q,FLOW_SensID,GPOS_Lat,GPOS_Lon,GPOS_Alt,GPOS_VelN,GPOS_VelE,GPOS_VelD,GPOS_EPH,GPOS_EPV,GPSP_NavState,GPSP_Lat,GPSP_Lon,GPSP_Alt,GPSP_Yaw,GPSP_Type,GPSP_LoitR,GPSP_LoitDir,GPSP_PitMin,ESC_count,ESC_nESC,ESC_Conn,ESC_N,ESC_Ver,ESC_Adr,ESC_Volt,ESC_Amp,ESC_RPM,ESC_Temp,ESC_SetP,ESC_SetPRAW,GVSP_VX,GVSP_VY,GVSP_VZ,BATT_V,BATT_VFilt,BATT_C,BATT_Discharged,DIST_Bottom,DIST_BottomRate,DIST_Flags,TELE_RSSI,TELE_RemRSSI,TELE_Noise,TELE_RemNoise,TELE_RXErr,TELE_Fixed,TELE_TXBuf,ESTM_s0,ESTM_s1,ESTM_s2,ESTM_s3,ESTM_s4,ESTM_s5,ESTM_s6,ESTM_s7,ESTM_s8,ESTM_s9,ESTM_nStat,ESTM_statNaN,ESTM_covNaN,ESTM_kGainNaN,PWR_Periph5V,PWR_Servo5V,PWR_RSSI,PWR_UsbOk,PWR_BrickOk,PWR_ServoOk,PWR_PeriphOC,PWR_HipwrOC,VICN_X,VICN_Y,VICN_Z,VICN_Roll,VICN_Pitch,VICN_Yaw,GS0A_s0,GS0A_s1,GS0A_s2,GS0A_s3,GS0A_s4,GS0A_s5,GS0A_s6,GS0A_s7,GS0A_s8,GS0A_s9,GS0A_s10,GS0A_s11,GS0A_s12,GS0A_s13,GS0A_s14,GS0A_s15,GS0B_s0,GS0B_s1,GS0B_s2,GS0B_s3,GS0B_s4,GS0B_s5,GS0B_s6,GS0B_s7,GS0B_s8,GS0B_s9,GS0B_s10,GS0B_s11,GS0B_s12,GS0B_s13,GS0B_s14,GS0B_s15,GS1A_s0,GS1A_s1,GS1A_s2,GS1A_s3,GS1A_s4,GS1A_s5,GS1A_s6,GS1A_s7,GS1A_s8,GS1A_s9,GS1A_s10,GS1A_s11,GS1A_s12,GS1A_s13,GS1A_s14,GS1A_s15,GS1B_s0,GS1B_s1,GS1B_s2,GS1B_s3,GS1B_s4,GS1B_s5,GS1B_s6,GS1B_s7,GS1B_s8,GS1B_s9,GS1B_s10,GS1B_s11,GS1B_s12,GS1B_s13,GS1B_s14,GS1B_s15,TIME_StartTime,VER_Arch,VER_FwGit,PARM_Name,PARM_Value
,,,,,,,,,,,,,,,,,,,,,,,,,,,,,,,,,,,,,,,,,,,,,,,,,,,,,,,,,,,,,,,,,,,,,,,,,,,,,,,,,,,,,,,,,,,,,,,,,,,,,,,,,,,,,,,,,,,,,,,,,,,,,,,,,,,,,,,,,,,,,,,,,,,,,,,,,,,,,,,,,,,,,,,,,,,,,,,,,,,,,,,,,,,,,,,,,,,,,,,,,,,,,,,,,,,,,,,,,,,,,,,,,,,,,,,,,,,,,,,,,,PX4FMU_V1,c4e2232078f2f28cbf97b8280f40fd988a5c2a75,test,305419904.0
0.0280366633087,-0.018099790439,2.37374448776,-0.0135160908103,-0.0216017663479,-0.0229469165206,0.278816848993,-0.157330140471,-9.66061019897,0.0,0.0,2.32951593399,0.0,0.278816848993,-0.157330140471,-9.66061019897,-0.0127245197073,-0.018224991858,-0.0110922586173,-0.286438107491,-0.290080159903,0.514358580112,1010.59997559,22.0823402405,25.4699993134,0.0,0.0,-0.313694387674,0.166458845139,-0.164835363626,0.0,0.0,-0.250514000654,0.131427496672,-0.0203109774739,0.0,0.0,0.0,10,1,0,1.26103574282e+13,1.15113019943,,,,,,,,,,,,,,,,,,,,-0.0164647474885,0.0145746339113,-0.00323028443381,0.0,0,2,0,0.81138163805,0,1,0.0,-0.0,0.0,0.0371287129819,0.99816006422,0.776942372322,-0.998161792755,0.0,7,0,10.0,10.0,10.0,10.0,0.0,0.0,0.0,0.0,,,,-0.140167996287,0.0905108079314,-0.0444821454585,0,0,0.0,0.0,4.65600013733,0,77,,,,,,,,,,,,,,,,,,,,,,,,,,,,,,,,,11.0377140045,11.3972740173,-1.0,-1.0,,,,,,,,,,,,,,,,,,,,,,,,,,,,,,,,,1.54991161823,-0.655760884285,0.0406932383776,0.014442092739,0.00577027769759,1.69972145557,,,,,,,,,,,,,,,,,,,,,,,,,,,,,,,,,,,,,,,,,,,,,,,,,,,,,,,,,,,,,,,,,34501260,PX4FMU_V1,c4e2232078f2f28cbf97b8280f40fd988a5c2a75,test,305419904.0
0.0278752818704,-0.0182096082717,2.37397074699,-0.00332924420945,-0.00716227432713,0.0160555355251,0.000257078558207,-0.118732079864,-9.64564609528,0.0,-0.00156632135622,2.32951593399,0.0,0.000257078558207,-0.118732079864,-9.64564609528,0.000886465830263,-0.00345788546838,0.00647066347301,-0.257081925869,-0.244307249784,0.526820063591,1010.66998291,21.4984302521,25.4799995422,0.0,0.0,-0.313694387674,0.166458845139,-0.166122078896,0.0,0.0,-0.250514000654,0.131427496672,-0.0208019837737,0.0,0.0,0.0,10,1,0,1.27638133801e+13,1.15119075775,,,,,,,,,,,,,,,,,,,,-0.017729703337,0.011751646176,-0.00911124330014,0.0,0,2,0,0.798182189465,0,1,0.0,0.0025641026441,0.0,0.0346534661949,1.0,0.776942372322,-0.998161792755,0.0,7,0,10.0,10.0,10.0,10.0,0.0,0.0,0.0,0.0,,,,-0.139711588621,0.0832350105047,-0.0446860864758,1,-6,-0.138829261065,0.868574380875,4.65600013733,51,77,,,,,,,,,,,,,,,,,,,,,,,,,,,,,,,,,10.9287614822,11.3963794708,-1.0,-1.0,,,,,,,,,,,,,,,,,,,,,,,,,,,,,,,,,1.54991161823,-0.655760884285,0.0406932383776,0.014442092739,0.00577027769759,1.69972145557,,,,,,,,,,,,,,,,,,,,,,,,,,,,,,,,,,,,,,,,,,,,,,,,,,,,,,,,,,,,,,,,,34521864,PX4FMU_V1,c4e2232078f2f28cbf97b8280f40fd988a5c2a75,test,305419904.0
0.0277159865946,-0.0183817241341,2.37424397469,-0.0113302683458,-0.0189000722021,-0.0128782400861,0.253763109446,-0.259032964706,-9.69150543213,0.0,-0.00156632135622,2.32951593399,0.0,0.253763109446,-0.259032964706,-9.69150543213,-0.0178641229868,-0.0275630448014,-0.00783240329474,-0.321298569441,-0.290912389755,0.50545758009,1010.59997559,22.0823402405,25.4799995422,0.0,0.0,-0.313694387674,0.166458845139,-0.165561571717,0.0,0.0,-0.250514000654,0.131427496672,-0.0197052545846,0.0,0.0,0.0,10,1,0,1.30747864187e+13,1.15131139755,,,,,,,,,,,,,,,,,,,,-0.0165862813592,0.013389447704,-0.00481230998412,0.0,0,2,0,0.798182189465,0,1,0.0,0.0025641026441,0.0,0.0346534661949,1.0,0.776942372322,-0.998161792755,0.0,7,0,10.0,10.0,10.0,10.0,0.0,0.0,0.0,0.0,,,,-0.138917043805,0.0840956792235,-0.0449603050947,-15,29,2.08369088173,-3.96765041351,4.65600013733,43,77,,,,,,,,,,,,,,,,,,,,,,,,,,,,,,,,,11.0544757843,11.3956956863,-1.0,-1.0,,,,,,,,,,,,,,,,,,,,,,,,,,,,,,,,,1.54991161823,-0.655760884285,0.0406932383776,0.014442092739,0.00577027769759,1.69972145557,,,,,,,,,,,,,,,,,,,,,,,,,,,,,,,,,,,,,,,,,,,,,,,,,,,,,,,,,,,,,,,,,34542977,PX4FMU_V1,c4e2232078f2f28cbf97b8280f40fd988a5c2a75,test,305419904.0
0.027313541621,-0.018844416365,2.37471008301,-0.00109371496364,-0.00572656746954,-0.0163579955697,-0.2692514956,-0.0305148586631,-9.66156768799,0.0,-0.00156632135622,2.32951593399,0.0,-0.2692514956,-0.0305148586631,-9.66156768799,0.0179817061871,0.0153784183785,-0.0346632190049,-0.289190232754,-0.251797348261,0.49032574892,1010.59997559,22.0823402405,25.4799995422,0.0,0.0,-0.313694387674,0.166458845139,-0.170477807522,0.0,0.0,-0.250514000654,0.131427496672,-0.022175906226,0.0,0.0,0.0,10,1,0,1.33898415636e+13,1.15143072605,,,,,,,,,,,,,,,,,,,,-0.0176558494568,0.0119776539505,-0.00436072656885,0.0,0,2,0,0.798182189465,0,1,0.0,0.0025641026441,0.0,0.0371287129819,0.99816006422,0.776942372322,-0.998161792755,0.0,7,0,10.0,10.0,10.0,10.0,0.0,0.0,0.0,0.0,,,,-0.136907950044,0.0864092335105,-0.0454295054078,-16,3,1.91045284271,-0.355627447367,4.65600013733,0,77,,,,,,,,,,,,,,,,,,,,,,,,,,,,,,,,,11.0293331146,11.3949718475,-1.0,-1.0,,,,,,,,,,,,,,,,,,,,,,,,,,,,,,,,,1.54991161823,-0.655760884285,0.0406932383776,0.014442092739,0.00577027769759,1.69972145557,,,,,,,,,,,,,,,,,,,,,,,,,,,,,,,,,,,,,,,,,,,,,,,,,,,,,,,,,,,,,,,,,34565265,PX4FMU_V1,c4e2232078f2f28cbf97b8280f40fd988a5c2a75,test,305419904.0
0.0275717899203,-0.0184043031186,2.37785673141,0.00685936957598,0.00584904290736,0.0272309929132,0.116112008691,-0.122291840613,-9.57734584808,0.0,-0.00156632135622,2.32951593399,0.0,0.116112008691,-0.122291840613,-9.57734584808,-0.00757255917415,-0.0132829546928,0.0599822998047,-0.322215944529,-0.218507945538,0.509018003941,1010.64996338,21.6652584076,25.4799995422,0.0,0.0,-0.313694387674,0.166458845139,-0.17192402482,0.0,0.0,-0.250514000654,0.131427496672,-0.022322434932,0.0,0.0,0.0,10,1,0,1.37162580296e+13,1.15155124664,,,,,,,,,,,,,,,,,,,,-0.0188608877361,0.0101868966594,-0.0113704679534,0.0,0,2,0,0.798182189465,0,1,0.0,0.0025641026441,0.0,0.0371287129819,0.99816006422,0.776942372322,-0.998161792755,0.0,7,0,10.0,10.0,10.0,10.0,0.0,0.0,0.0,0.0,,,,-0.138224378228,0.0842097848654,-0.0485721193254,4,30,-0.498252689838,-3.46114730835,4.65600013733,63,77,,,,,,,,,,,,,,,,,,,,,,,,,,,,,,,,,11.0377140045,11.3946142197,-1.0,-1.0,,,,,,,,,,,,,,,,,,,,,,,,,,,,,,,,,1.54991161823,-0.655760884285,0.0406932383776,0.014442092739,0.00577027769759,1.69972145557,,,,,,,,,,,,,,,,,,,,,,,,,,,,,,,,,,,,,,,,,,,,,,,,,,,,,,,,,,,,,,,,,34586272,PX4FMU_V1,c4e2232078f2f28cbf97b8280f40fd988a5c2a75,test,305419904.0
0.0274615250528,-0.0187097713351,2.37959432602,0.00535546895117,0.0033519405406,-0.0541999191046,0.635482311249,-0.836645305157,-9.59684371948,0.0,0.0,2.32951593399,0.0,0.635482311249,-0.836645305157,-9.59684371948,0.0156213976443,0.0273227915168,-0.0774868950248,-0.269007861614,-0.221004664898,0.514358580112,1010.63995361,21.7486743927,25.4799995422,0.0,0.0,-0.313694387674,0.166458845139,-0.172492563725,0.0,0.0,-0.250514000654,0.131427496672,-0.022818736732,0.0,0.0,0.0,10,1,0,1.40487415562e+13,1.15167105198,,,,,,,,,,,,,,,,,,,,-0.0185441169888,0.0117271253839,0.000579675659537,0.0,0,2,0,0.798182189465,0,1,0.0,-0.0,0.0,0.0346534661949,1.0,0.776942372322,-0.998161792755,0.0,7,0,10.0,10.0,10.0,10.0,0.0,0.0,0.0,0.0,,,,-0.13729159534,0.0935605987906,-0.0503354147077,0,0,0.0,0.0,4.65600013733,0,77,,,,,,,,,,,,,,,,,,,,,,,,,,,,,,,,,11.0628566742,11.3939418793,-1.0,-1.0,,,,,,,,,,,,,,,,,,,,,,,,,,,,,,,,,1.54991161823,-0.655760884285,0.0406932383776,0.014442092739,0.00577027769759,1.69972145557,,,,,,,,,,,,,,,,,,,,,,,,,,,,,,,,,,,,,,,,,,,,,,,,,,,,,,,,,,,,,,,,,34608717,PX4FMU_V1,c4e2232078f2f28cbf97b8280f40fd988a5c2a75,test,305419904.0
0.0273652430624,-0.0186423659325,2.38096308708,0.00884655863047,-0.00434741424397,0.0707813575864,-1.43380308151,0.644589424133,-9.75428771973,0.0,0.0,2.32951593399,0.0,-1.43380308151,0.644589424133,-9.75428771973,0.00993854179978,-0.0173813663423,0.0954860299826,-0.275429517031,-0.241810530424,0.491215854883,1010.63000488,21.8320903778,25.4699993134,0.0,0.0,-0.313694387674,0.166458845139,-0.173108205199,0.0,0.0,-0.250514000654,0.131427496672,-0.0225412584841,0.0,0.0,0.0,10,1,0,1.42183120241e+13,1.15173125267,,,,,,,,,,,,,,,,,,,,-0.0189354028553,0.0126842139289,-0.0183725375682,0.0,0,2,0,0.798182189465,0,1,0.0,-0.0,0.0,0.0346534661949,1.0,0.776942372322,-0.998161792755,0.0,7,0,10.0,10.0,10.0,10.0,0.0,0.0,0.0,0.0,,,,-0.13681037724,0.0932234674692,-0.0517022274435,0,0,0.0,0.0,4.65600013733,0,77,,,,,,,,,,,,,,,,,,,,,,,,,,,,,,,,,11.0712375641,11.3933048248,-1.0,-1.0,,,,,,,,,,,,,,,,,,,,,,,,,,,,,,,,,1.54991161823,-0.655760884285,0.0406932383776,0.014442092739,0.00577027769759,1.69972145557,,,,,,,,,,,,,,,,,,,,,,,,,,,,,,,,,,,,,,,,,,,,,,,,,,,,,,,,,,,,,,,,,34629663,PX4FMU_V1,c4e2232078f2f28cbf97b8280f40fd988a5c2a75,test,305419904.0
0.0279013123363,-0.0180153455585,2.38054490089,0.0119513636455,0.0235695131123,-0.0902419090271,1.77972817421,-0.608863711357,-9.64015769958,0.0,0.0,2.32951593399,0.0,1.77972817421,-0.608863711357,-9.64015769958,0.00239935331047,0.0302377566695,-0.0969532877207,-0.283685952425,-0.263448625803,0.500116884708,1010.55999756,22.4160175323,25.4699993134,0.0,0.0,-0.313694387674,0.166458845139,-0.177164420485,0.0,0.0,-0.250514000654,0.131427496672,-0.023994250223,0.0,0.0,0.0,10,1,0,1.45631991562e+13,1.15185129642,,,,,,,,,,,,,,,,,,,,-0.0196875631809,0.00864745303988,0.00584421493113,0.0,0,2,0,0.798182189465,0,1,0.0,-0.0,0.0,0.0346534661949,1.0,0.776942372322,-0.998161792755,0.0,7,0,10.0,10.0,10.0,10.0,0.0,0.0,0.0,0.0,,,,-0.139491438866,0.0900883898139,-0.0512804761529,4,-4,-0.66967010498,0.679745912552,4.65600013733,43,77,,,,,,,,,,,,,,,,,,,,,,,,,,,,,,,,,11.0880002975,11.3926858902,-1.0,-1.0,,,,,,,,,,,,,,,,,,,,,,,,,,,,,,,,,1.54991161823,-0.655760884285,0.0406932383776,0.014442092739,0.00577027769759,1.69972145557,,,,,,,,,,,,,,,,,,,,,,,,,,,,,,,,,,,,,,,,,,,,,,,,,,,,,,,,,,,,,,,,,34651057,PX4FMU_V1,c4e2232078f2f28cbf97b8280f40fd988a5c2a75,test,305419904.0
0.0281112100929,-0.0181403513998,2.3830602169,0.0304375402629,0.0140290902928,0.0234255567193,0.313124924898,-1.07152271271,-9.38346481323,0.0,0.0,2.32951593399,0.0,0.313124924898,-1.07152271271,-9.38346481323,0.0279123485088,0.0171539131552,-0.0986062139273,-0.291024982929,-0.274267703295,0.501007020473,1010.64996338,21.6652584076,25.4899997711,0.0,0.0,-0.313694387674,0.166458845139,-0.186132624745,0.0,0.0,-0.250514000654,0.131427496672,-0.0292598120868,0.0,0.0,0.0,10,1,0,1.49160659517e+13,1.15197122097,,,,,,,,,,,,,,,,,,,,-0.0222271624953,0.00996900070459,-0.0115837054327,0.0,0,2,0,0.798182189465,0,1,0.0,-0.0,0.0,0.0346534661949,1.0,0.776942372322,-0.998161792755,0.0,7,0,10.0,10.0,10.0,10.0,0.0,0.0,0.0,0.0,,,,-0.140540629625,0.0907137170434,-0.0537991449237,0,0,0.0,0.0,4.65600013733,0,77,,,,,,,,,,,,,,,,,,,,,,,,,,,,,,,,,11.2137145996,11.392203331,-1.0,-1.0,,,,,,,,,,,,,,,,,,,,,,,,,,,,,,,,,1.54991161823,-0.655760884285,0.0406932383776,0.014442092739,0.00577027769759,1.69972145557,,,,,,,,,,,,,,,,,,,,,,,,,,,,,,,,,,,,,,,,,,,,,,,,,,,,,,,,,,,,,,,,,34672886,PX4FMU_V1,c4e2232078f2f28cbf97b8280f40fd988a5c2a75,test,305419904.0
0.0285630449653,-0.0171919800341,2.38202166557,0.0406462214887,0.0421628169715,0.0382485464215,-1.83006572723,1.02526950836,-9.97533798218,0.0,-0.00156632135622,2.32951593399,0.0,-1.83006572723,1.02526950836,-9.97533798218,0.0664785429835,0.0585022494197,0.159201487899,-0.280933827162,-0.270938754082,0.508127868176,1010.61999512,21.9155063629,25.4899997711,0.0,0.0,-0.313694387674,0.166458845139,-0.186987698078,0.0,0.0,-0.250514000654,0.131427496672,-0.0307373832911,0.0,0.0,0.0,10,1,0,1.52791553147e+13,1.15209186077,,,,,,,,,,,,,,,,,,,,-0.0239019058645,0.00467830337584,-0.0136464899406,0.0,0,2,0,0.798182189465,0,1,0.0,0.0025641026441,0.0,0.0371287129819,0.99816006422,0.776942372322,-0.996323525906,0.0,7,0,10.0,10.0,10.0,10.0,0.0,0.0,0.0,0.0,,,,-0.143214598298,0.0781497657299,-0.0527280457318,0,0,0.0,0.0,4.65600013733,0,77,,,,,,,,,,,,,,,,,,,,,,,,,,,,,,,,,11.2891426086,11.3921003342,-1.0,-1.0,,,,,,,,,,,,,,,,,,,,,,,,,,,,,,,,,1.54991161823,-0.655760884285,0.0406932383776,0.014442092739,0.00577027769759,1.69972145557,,,,,,,,,,,,,,,,,,,,,,,,,,,,,,,,,,,,,,,,,,,,,,,,,,,,,,,,,,,,,,,,,34694303,PX4FMU_V1,c4e2232078f2f28cbf97b8280f40fd988a5c2a75,test,305419904.0
0.0299813225865,-0.0158451776952,2.38118767738,0.0239780917764,0.0199810769409,-0.0304530709982,1.12908732891,-0.236226081848,-9.49925518036,0.0,-0.00156632135622,2.32951593399,0.0,1.12908732891,-0.236226081848,-9.49925518036,-0.0239466652274,-0.0216808468103,0.0101915951818,-0.249742895365,-0.251797348261,0.500116884708,1010.59997559,22.0823402405,25.4899997711,0.0,0.0,-0.313694387674,0.166458845139,-0.191588312387,0.0,0.0,-0.250514000654,0.131427496672,-0.0284518245608,0.0,0.0,0.0,10,1,0,1.56522690642e+13,1.15221273899,,,,,,,,,,,,,,,,,,,,-0.0226562730968,0.00668647419661,-0.00321477581747,0.0,0,2,0,0.794726073742,0,1,0.0,0.0025641026441,0.0,0.0371287129819,0.99816006422,0.776942372322,-0.996323525906,0.0,7,0,10.0,10.0,10.0,10.0,0.0,0.0,0.0,0.0,,,,-0.150300934911,0.0714154988527,-0.0518849082291,0,0,0.0,0.0,4.48099994659,0,77,,,,,,,,,,,,,,,,,,,,,,,,,,,,,,,,,11.3980951309,11.3920955658,-1.0,-1.0,,,,,,,,,,,,,,,,,,,,,,,,,,,,,,,,,1.54991161823,-0.655760884285,0.0406932383776,0.014442092739,0.00577027769759,1.69972145557,,,,,,,,,,,,,,,,,,,,,,,,,,,,,,,,,,,,,,,,,,,,,,,,,,,,,,,,,,,,,,,,,34717067,PX4FMU_V1,c4e2232078f2f28cbf97b8280f40fd988a5c2a75,test,305419904.0
0.0298130121082,-0.0163683407009,2.38112640381,-0.0159960594028,-0.0274475831538,-0.0324841663241,0.823943257332,-0.950925171375,-9.63325405121,0.0,-0.00156632135622,2.32951593399,0.0,0.823943257332,-0.950925171375,-9.63325405121,-0.0205571353436,-0.0177836734802,-0.104309305549,-0.26166883111,-0.255126297474,0.488545536995,1010.65997314,21.5818443298,25.4899997711,0.0,0.0,-0.313694387674,0.166458845139,-0.192973330617,0.0,0.0,-0.250514000654,0.131427496672,-0.0282644592226,0.0,0.0,0.0,10,1,0,1.58407526973e+13,1.15227270126,,,,,,,,,,,,,,,,,,,,-0.0173500776291,0.0131922876462,-0.00290192500688,0.0,0,2,0,0.794726073742,0,1,0.0,0.0025641026441,0.0,0.0371287129819,0.99816006422,0.776942372322,-0.996323525906,0.0,7,0,10.0,10.0,10.0,10.0,0.0,0.0,0.0,0.0,,,,-0.149458199739,0.0740315616131,-0.0518303327262,0,0,0.0,0.0,4.48099994659,0,77,,,,,,,,,,,,,,,,,,,,,,,,,,,,,,,,,11.389714241,11.3920984268,-1.0,-1.0,,,,,,,,,,,,,,,,,,,,,,,,,,,,,,,,,1.54991161823,-0.655760884285,0.0406932383776,0.014442092739,0.00577027769759,1.69972145557,,,,,,,,,,,,,,,,,,,,,,,,,,,,,,,,,,,,,,,,,,,,,,,,,,,,,,,,,,,,,,,,,34737544,PX4FMU_V1,c4e2232078f2f28cbf97b8280f40fd988a5c2a75,test,305419904.0
0.0298130121082,-0.0163683407009,2.38112640381,-0.0159960594028,-0.0274475831538,-0.0324841663241,0.823943257332,-0.950925171375,-9.63325405121,0.0,-0.00156632135622,2.32951593399,0.0,-1.2355837822,0.492076396942,-9.59238433838,-0.0266321320087,-0.0577052943408,0.114861294627,-0.283685952425,-0.240146055818,0.496556520462,1010.64996338,21.6652584076,25.4899997711,0.0,0.0,-0.313694387674,0.166458845139,-0.192973330617,0.0,0.0,-0.250514000654,0.131427496672,-0.0282644592226,0.0,0.0,0.0,10,1,0,1.58407526973e+13,1.15227270126,,,,,,,,,,,,,,,,,,,,-0.0173500776291,0.0131922876462,-0.00290192500688,0.0,0,2,0,0.794726073742,0,1,0.0,0.0025641026441,0.0,0.0371287129819,0.99816006422,0.776942372322,-0.996323525906,0.0,7,0,10.0,10.0,10.0,10.0,0.0,0.0,0.0,0.0,,,,-0.144511684775,0.0774636343122,-0.0519022755325,0,0,0.0,0.0,4.48099994659,0,77,,,,,,,,,,,,,,,,,,,,,,,,,,,,,,,,,11.389714241,11.3920984268,-1.0,-1.0,,,,,,,,,,,,,,,,,,,,,,,,,,,,,,,,,1.54991161823,-0.655760884285,0.0406932383776,0.014442092739,0.00577027769759,1.69972145557,,,,,,,,,,,,,,,,,,,,,,,,,,,,,,,,,,,,,,,,,,,,,,,,,,,,,,,,,,,,,,,,,34758937,PX4FMU_V1,c4e2232078f2f28cbf97b8280f40fd988a5c2a75,test,305419904.0
0.0288976766169,-0.0170448720455,2.38088941574,0.0140074463561,0.0163427963853,-0.0354615338147,-0.179553821683,0.378510802984,-9.87816810608,0.0,-0.00156632135622,2.32951593399,0.0,-0.179553821683,0.378510802984,-9.87816810608,0.00978777650744,0.0182941760868,0.0488584786654,-0.297446668148,-0.227662533522,0.49833676219,1010.63995361,21.7486743927,25.4799995422,0.0,0.0,-0.313694387674,0.166458845139,-0.191621899605,0.0,0.0,-0.250514000654,0.131427496672,-0.0271149836481,0.0,0.0,0.0,10,1,0,1.72272711107e+13,1.15269315243,,,,,,,,,,,,,,,,,,,,-0.0206552390009,0.00793924648315,-0.00242023379542,0.0,0,2,0,0.794726073742,0,1,0.0,0.0025641026441,0.0,0.0371287129819,1.0,0.776942372322,-0.998161792755,0.0,7,0,10.0,10.0,10.0,10.0,0.0,0.0,0.0,0.0,,,,-0.1448790133,0.0774139240384,-0.0515964254737,-5,-19,0.727560222149,2.64376091957,4.48099994659,75,77,,,,,,,,,,,,,,,,,,,,,,,,,,,,,,,,,11.389714241,11.3921127319,-1.0,-1.0,,,,,,,,,,,,,,,,,,,,,,,,,,,,,,,,,1.54993164539,-0.655433237553,0.0407835841179,0.0141721358523,0.00535087147728,1.7001363039,,,,,,,,,,,,,,,,,,,,,,,,,,,,,,,,,,,,,,,,,,,,,,,,,,,,,,,,,,,,,,,,,34823399,PX4FMU_V1,c4e2232078f2f28cbf97b8280f40fd988a5c2a75,test,305419904.0
0.0287116337568,-0.0174024607986,2.38178277016,-0.0235127359629,-0.0331634581089,-0.00863619148731,0.000723710749298,-0.269978493452,-9.84302806854,0.0,-0.00156632135622,2.32951593399,0.0,0.000723710749298,-0.269978493452,-9.84302806854,-0.0343781784177,-0.0359312593937,-0.0872599631548,-0.257081925869,-0.215179026127,0.497446626425,1010.64996338,21.6652584076,25.4799995422,0.0,0.0,-0.313694387674,0.166458845139,-0.192245796323,0.0,0.0,-0.250514000654,0.131427496672,-0.0253013912588,0.0,0.0,0.0,10,1,0,1.76496270377e+13,1.15281438828,,,,,,,,,,,,,,,,,,,,-0.0156575348228,0.0146075505763,-0.00657856557518,0.0,0,2,0,0.794726073742,0,1,0.0,0.0025641026441,0.0,0.0371287129819,0.99816006422,0.776942372322,-0.996323525906,0.0,7,0,10.0,10.0,10.0,10.0,0.0,0.0,0.0,0.0,,,,-0.14395532012,0.0792023167014,-0.0524932928383,0,0,0.0,0.0,4.48099994659,0,77,,,,,,,,,,,,,,,,,,,,,,,,,,,,,,,,,11.3645715714,11.3920907974,-1.0,-1.0,,,,,,,,,,,,,,,,,,,,,,,,,,,,,,,,,1.54993164539,-0.655433237553,0.0407835841179,0.0141721358523,0.00535087147728,1.7001363039,,,,,,,,,,,,,,,,,,,,,,,,,,,,,,,,,,,,,,,,,,,,,,,,,,,,,,,,,,,,,,,,,34844900,PX4FMU_V1,c4e2232078f2f28cbf97b8280f40fd988a5c2a75,test,305419904.0
0.0283365249634,-0.0177244413644,2.38316750526,-0.00379488780163,-0.0135306064039,-0.00483150174841,0.172730877995,-0.169642329216,-9.56528663635,0.0,-0.00156632135622,2.32951593399,0.0,0.172730877995,-0.169642329216,-9.56528663635,0.00818093307316,-0.00545471534133,0.0457327067852,-0.295611917973,-0.227662533522,0.50634765625,1010.63995361,21.7486743927,25.4799995422,0.0,0.0,-0.313694387674,0.166458845139,-0.191325753927,0.0,0.0,-0.250514000654,0.131427496672,-0.0259602032602,0.0,0.0,0.0,10,1,0,1.8074593919e+13,1.15293359756,,,,,,,,,,,,,,,,,,,,-0.0179783981293,0.0122646326199,-0.00735723692924,0.0,0,2,0,0.794726073742,0,1,0.0,0.0025641026441,0.0,0.0371287129819,0.99816006422,0.776942372322,-0.998161792755,0.0,7,0,10.0,10.0,10.0,10.0,0.0,0.0,0.0,0.0,,,,-0.142090275884,0.0808127298951,-0.0538797453046,0,0,0.0,0.0,4.48099994659,0,77,,,,,,,,,,,,,,,,,,,,,,,,,,,,,,,,,11.2807617188,11.3919267654,-1.0,-1.0,,,,,,,,,,,,,,,,,,,,,,,,,,,,,,,,,1.54993164539,-0.655433237553,0.0407835841179,0.0141721358523,0.00535087147728,1.7001363039,,,,,,,,,,,,,,,,,,,,,,,,,,,,,,,,,,,,,,,,,,,,,,,,,,,,,,,,,,,,,,,,,34865667,PX4FMU_V1,c4e2232078f2f28cbf97b8280f40fd988a5c2a75,test,305419904.0
0.0282110441476,-0.0178360380232,2.38274717331,-0.00913941767067,-0.0139745241031,0.00620973389596,-0.164032012224,0.0440548248589,-9.67070770264,0.0,0.0,2.32951593399,0.0,-0.164032012224,0.0440548248589,-9.67070770264,-0.0119149051607,-0.0214360952377,-0.015168953687,-0.265338361263,-0.274267703295,0.49833676219,1010.63995361,21.7486743927,25.4799995422,0.0,0.0,-0.313694387674,0.166458845139,-0.192082598805,0.0,0.0,-0.250514000654,0.131427496672,-0.0250898506492,0.0,0.0,0.0,10,1,0,1.85152181371e+13,1.15305435658,,,,,,,,,,,,,,,,,,,,-0.0171471070498,0.0134116504341,-0.00895390473306,0.0,0,2,0,0.794726073742,0,1,0.0,-0.0,0.0,0.0346534661949,1.0,0.776942372322,-0.998161792755,0.0,7,0,10.0,10.0,10.0,10.0,0.0,0.0,0.0,0.0,,,,-0.141040250659,0.0891920179129,-0.0534829609096,0,0,0.0,0.0,4.48099994659,0,77,,,,,,,,,,,,,,,,,,,,,,,,,,,,,,,,,11.2723808289,11.3918075562,-1.0,-1.0,,,,,,,,,,,,,,,,,,,,,,,,,,,,,,,,,1.54993164539,-0.655433237553,0.0407835841179,0.0141721358523,0.00535087147728,1.7001363039,,,,,,,,,,,,,,,,,,,,,,,,,,,,,,,,,,,,,,,,,,,,,,,,,,,,,,,,,,,,,,,,,34887002,PX4FMU_V1,c4e2232078f2f28cbf97b8280f40fd988a5c2a75,test,305419904.0
0.0278524588794,-0.0183232035488,2.38152956963,-0.00985102914274,-0.0157184675336,-0.00855716038495,-0.276505410671,-0.0468461513519,-9.72292804718,0.0,0.0,2.32951593399,0.0,-0.276505410671,-0.0468461513519,-9.72292804718,-0.000921568600461,-0.00282180169597,-0.0251275524497,-0.265338361263,-0.269274264574,0.499226868153,1010.63000488,21.8320903778,25.4799995422,0.0,0.0,-0.313694387674,0.166458845139,-0.193340390921,0.0,0.0,-0.250514000654,0.131427496672,-0.0264108031988,0.0,0.0,0.0,10,1,0,1.89705287107e+13,1.15317606926,,,,,,,,,,,,,,,,,,,,-0.0168214421719,0.013955026865,-0.00655677076429,0.0,0,2,0,0.794726073742,0,1,0.0,-0.0,0.0,0.0346534661949,1.0,0.776942372322,-0.998161792755,0.0,7,0,10.0,10.0,10.0,10.0,0.0,0.0,0.0,0.0,,,,-0.139246731997,0.0916278958321,-0.0522689633071,0,0,0.0,0.0,4.48099994659,0,77,,,,,,,,,,,,,,,,,,,,,,,,,,,,,,,,,11.2891426086,11.3915939331,-1.0,-1.0,,,,,,,,,,,,,,,,,,,,,,,,,,,,,,,,,1.54993164539,-0.655433237553,0.0407835841179,0.0141721358523,0.00535087147728,1.7001363039,,,,,,,,,,,,,,,,,,,,,,,,,,,,,,,,,,,,,,,,,,,,,,,,,,,,,,,,,,,,,,,,,34909566,PX4FMU_V1,c4e2232078f2f28cbf97b8280f40fd988a5c2a75,test,305419904.0
0.0280295461416,-0.0180322676897,2.38108491898,0.0170579068363,0.0145315788686,0.0108219897375,0.0590229853988,-0.0519166663289,-9.70533180237,0.0,0.0,2.32951593399,0.0,0.0590229853988,-0.0519166663289,-9.70533180237,0.0174275692552,0.0144613236189,0.0510598570108,-0.265338361263,-0.255958527327,0.497446626425,1010.59997559,22.0823402405,25.4799995422,0.0,0.0,-0.313694387674,0.166458845139,-0.195661216974,0.0,0.0,-0.250514000654,0.131427496672,-0.0268775317818,0.0,0.0,0.0,10,1,0,1.91938481357e+13,1.15323472023,,,,,,,,,,,,,,,,,,,,-0.0204347595572,0.00983340013772,-0.00939655117691,0.0,0,2,0,0.794332504272,0,1,0.0,-0.0,0.0,0.0346534661949,1.0,0.776942372322,-0.998161792755,0.0,7,0,10.0,10.0,10.0,10.0,0.0,0.0,0.0,0.0,,,,-0.140132546425,0.090173125267,-0.0518216826022,0,0,0.0,0.0,4.48099994659,0,77,,,,,,,,,,,,,,,,,,,,,,,,,,,,,,,,,11.2891426086,11.3913974762,-1.0,-1.0,,,,,,,,,,,,,,,,,,,,,,,,,,,,,,,,,1.54993164539,-0.655433237553,0.0407835841179,0.0141721358523,0.00535087147728,1.7001363039,,,,,,,,,,,,,,,,,,,,,,,,,,,,,,,,,,,,,,,,,,,,,,,,,,,,,,,,,,,,,,,,,34930127,PX4FMU_V1,c4e2232078f2f28cbf97b8280f40fd988a5c2a75,test,305419904.0
0.0281754415482,-0.0179862696677,2.38166856766,0.00835379119962,-0.00118281506002,-0.00598699785769,0.0821702778339,-0.209224179387,-9.72100639343,0.0,-0.00156632135622,2.32951593399,0.0,0.0821702778339,-0.209224179387,-9.72100639343,0.0015903590247,-0.00614032428712,-0.0498765483499,-0.272677391768,-0.240978300571,0.50545758009,1010.60998535,21.998922348,25.5,0.0,0.0,-0.313694387674,0.166458845139,-0.197930172086,0.0,0.0,-0.250514000654,0.131427496672,-0.0274609066546,0.0,0.0,0.0,10,1,0,1.96622239662e+13,1.15335547924,,,,,,,,,,,,,,,,,,,,-0.0194514561445,0.0108295343816,-0.00695942062885,0.0,0,2,0,0.794332504272,0,1,0.0,0.0025641026441,0.0,0.0371287129819,0.99816006422,0.776942372322,-0.998161792755,0.0,7,0,10.0,10.0,10.0,10.0,0.0,0.0,0.0,0.0,,,,-0.141272813082,0.0821212977171,-0.0523831322789,-13,1,0.911432981491,-0.0914126634598,4.48099994659,71,77,,,,,,,,,,,,,,,,,,,,,,,,,,,,,,,,,11.2807617188,11.3911762238,-1.0,-1.0,,,,,,,,,,,,,,,,,,,,,,,,,,,,,,,,,1.54993164539,-0.655433237553,0.0407835841179,0.0141721358523,0.00535087147728,1.7001363039,,,,,,,,,,,,,,,,,,,,,,,,,,,,,,,,,,,,,,,,,,,,,,,,,,,,,,,,,,,,,,,,,34951302,PX4FMU_V1,c4e2232078f2f28cbf97b8280f40fd988a5c2a75,test,305419904.0
0.0284196771681,-0.0176641121507,2.38137698174,0.0192004535347,0.0161475334316,0.00540666282177,0.0640588775277,-0.289280325174,-9.75875377655,0.0,0.0,2.32951593399,0.0,0.0640588775277,-0.289280325174,-9.75875377655,0.0213150847703,0.0184947233647,0.0306963231415,-0.280016452074,-0.270938754082,0.485875219107,1010.60998535,21.998922348,25.5,0.0,0.0,-0.313694387674,0.166458845139,-0.201635062695,0.0,0.0,-0.250514000654,0.131427496672,-0.0291362851858,0.0,0.0,0.0,10,1,0,2.01358699397e+13,1.15347468853,,,,,,,,,,,,,,,,,,,,-0.020966924727,0.00938403699547,-0.00862779933959,0.0,0,2,0,0.794332504272,0,1,0.0,-0.0,0.0,0.0346534661949,1.0,0.776942372322,-0.998161792755,0.0,7,0,10.0,10.0,10.0,10.0,0.0,0.0,0.0,0.0,,,,-0.142083585262,0.0883324369788,-0.0521119944751,0,0,0.0,0.0,4.48099994659,0,77,,,,,,,,,,,,,,,,,,,,,,,,,,,,,,,,,11.2891426086,11.3909721375,-1.0,-1.0,,,,,,,,,,,,,,,,,,,,,,,,,,,,,,,,,1.54993164539,-0.655433237553,0.0407835841179,0.0141721358523,0.00535087147728,1.7001363039,,,,,,,,,,,,,,,,,,,,,,,,,,,,,,,,,,,,,,,,,,,,,,,,,,,,,,,,,,,,,,,,,34973161,PX4FMU_V1,c4e2232078f2f28cbf97b8280f40fd988a5c2a75,test,305419904.0
0.028558826074,-0.0175511632115,2.38253474236,0.00360675761476,-0.0080333724618,0.0107132866979,-0.0976784080267,-0.280442863703,-9.65717220306,0.0,-0.00156632135622,2.32951593399,0.0,-0.0976784080267,-0.280442863703,-9.65717220306,-0.00431732973084,-0.0220551937819,-0.00360579090193,-0.292859762907,-0.245139479637,0.509908139706,1010.63995361,21.7486743927,25.5,0.0,0.0,-0.313694387674,0.166458845139,-0.204372018576,0.0,0.0,-0.250514000654,0.131427496672,-0.028814824298,0.0,0.0,0.0,10,1,0,2.06245210358e+13,1.15359473228,,,,,,,,,,,,,,,,,,,,-0.0190844908357,0.0114373369142,-0.00959394033998,0.0,0,2,0,0.794332504272,0,1,0.0,0.0025641026441,0.0,0.0371287129819,0.99816006422,0.776942372322,-0.998161792755,0.0,7,0,10.0,10.0,10.0,10.0,0.0,0.0,0.0,0.0,,,,-0.143197029829,0.0799461454153,-0.0532463118434,0,0,0.0,0.0,4.48099994659,0,77,,,,,,,,,,,,,,,,,,,,,,,,,,,,,,,,,11.2891426086,11.3908700943,-1.0,-1.0,,,,,,,,,,,,,,,,,,,,,,,,,,,,,,,,,1.54993164539,-0.655433237553,0.0407835841179,0.0141721358523,0.00535087147728,1.7001363039,,,,,,,,,,,,,,,,,,,,,,,,,,,,,,,,,,,,,,,,,,,,,,,,,,,,,,,,,,,,,,,,,34993707,PX4FMU_V1,c4e2232078f2f28cbf97b8280f40fd988a5c2a75,test,305419904.0
0.0284833312035,-0.0176714733243,2.38231897354,0.000601563428063,-0.00293941330165,-0.0239998791367,0.030014347285,-0.17183150351,-9.49080085754,0.0,0.0,2.32951593399,0.0,0.030014347285,-0.17183150351,-9.49080085754,0.00813978165388,0.00771197769791,-0.0264182370156,-0.257999330759,-0.234320417047,0.495666414499,1010.61999512,21.9155063629,25.5,0.0,0.0,-0.313694387674,0.166458845139,-0.205080464482,0.0,0.0,-0.250514000654,0.131427496672,-0.0305387694389,0.0,0.0,0.0,10,1,0,2.08792012718e+13,1.15365624428,,,,,,,,,,,,,,,,,,,,-0.0185904409736,0.0118701355532,-0.00435821665451,0.0,0,2,0,0.794332504272,0,1,0.0,-0.0,0.0,0.0346534661949,1.0,0.776942372322,-0.998161792755,0.0,7,0,10.0,10.0,10.0,10.0,0.0,0.0,0.0,0.0,,,,-0.142401844263,0.0883693248034,-0.0530546568334,9,-15,-1.29960405827,2.07695746422,4.48099994659,0,77,,,,,,,,,,,,,,,,,,,,,,,,,,,,,,,,,11.2807617188,11.3906507492,-1.0,-1.0,,,,,,,,,,,,,,,,,,,,,,,,,,,,,,,,,1.54993164539,-0.655433237553,0.0407835841179,0.0141721358523,0.00535087147728,1.7001363039,,,,,,,,,,,,,,,,,,,,,,,,,,,,,,,,,,,,,,,,,,,,,,,,,,,,,,,,,,,,,,,,,35015273,PX4FMU_V1,c4e2232078f2f28cbf97b8280f40fd988a5c2a75,test,305419904.0
0.0285509377718,-0.0175263956189,2.38290572166,0.00271295313723,-0.00439075054601,0.0296311862767,-0.111972399056,-0.142029464245,-9.44513034821,0.0,0.0,2.32951593399,0.0,-0.111972399056,-0.142029464245,-9.44513034821,-0.00170355173759,-0.0139660639688,0.0318214520812,-0.233230039477,-0.258455246687,0.484985113144,1010.63000488,21.8320903778,25.5,0.0,0.0,-0.313694387674,0.166458845139,-0.207090586424,0.0,0.0,-0.250514000654,0.131427496672,-0.030948838219,0.0,0.0,0.0,10,1,0,2.13854013358e+13,1.15377628803,,,,,,,,,,,,,,,,,,,,-0.0189088936895,0.011964504607,-0.0124906832352,0.0,0,2,0,0.794332504272,0,1,0.0,-0.0,0.0,0.0346534661949,1.0,0.776942372322,-0.998161792755,0.0,7,0,10.0,10.0,10.0,10.0,0.0,0.0,0.0,0.0,,,,-0.142740085721,0.0876438990235,-0.053640037775,0,0,0.0,0.0,4.48099994659,0,77,,,,,,,,,,,,,,,,,,,,,,,,,,,,,,,,,11.2891426086,11.3904399872,-1.0,-1.0,,,,,,,,,,,,,,,,,,,,,,,,,,,,,,,,,1.54993164539,-0.655433237553,0.0407835841179,0.0141721358523,0.00535087147728,1.7001363039,,,,,,,,,,,,,,,,,,,,,,,,,,,,,,,,,,,,,,,,,,,,,,,,,,,,,,,,,,,,,,,,,35037632,PX4FMU_V1,c4e2232078f2f28cbf97b8280f40fd988a5c2a75,test,305419904.0
0.0284500475973,-0.0177438091487,2.3841817379,-0.00589778227732,-0.0106336241588,-0.0312668904662,-0.0305665452033,-0.139085158706,-9.74580097198,0.0,-0.00156632135622,2.32951593399,0.0,-0.0305665452033,-0.139085158706,-9.74580097198,-0.0018571508117,0.00105587195139,-0.0452932715416,-0.314876884222,-0.258455246687,0.50545758009,1010.64996338,21.6652584076,25.5100002289,0.0,0.0,-0.313694387674,0.166458845139,-0.206740260124,0.0,0.0,-0.250514000654,0.131427496672,-0.0296345036477,0.0,0.0,0.0,10,1,0,2.19024562586e+13,1.15389597416,,,,,,,,,,,,,,,,,,,,-0.0177798308432,0.0119006847963,-0.00354423024692,0.0,0,2,0,0.794332504272,0,1,0.0,0.0025641026441,0.0,0.0371287129819,0.99816006422,0.776942372322,-0.998161792755,0.0,7,0,10.0,10.0,10.0,10.0,0.0,0.0,0.0,0.0,,,,-0.142665714025,0.0809101089835,-0.0548950918019,0,0,0.0,0.0,4.48099994659,0,77,,,,,,,,,,,,,,,,,,,,,,,,,,,,,,,,,11.2807617188,11.3902206421,-1.0,-1.0,,,,,,,,,,,,,,,,,,,,,,,,,,,,,,,,,1.54993164539,-0.655433237553,0.0407835841179,0.0141721358523,0.00535087147728,1.7001363039,,,,,,,,,,,,,,,,,,,,,,,,,,,,,,,,,,,,,,,,,,,,,,,,,,,,,,,,,,,,,,,,,35058234,PX4FMU_V1,c4e2232078f2f28cbf97b8280f40fd988a5c2a75,test,305419904.0
0.0285824649036,-0.0174892041832,2.38295960426,0.0153760062531,0.0115824583918,0.0213809460402,0.03299311921,-0.219524145126,-9.76463508606,0.0,-0.00156632135622,2.32951593399,0.0,0.03299311921,-0.219524145126,-9.76463508606,0.0160656310618,0.0105452267453,0.0454536862671,-0.255247175694,-0.248468413949,0.486765325069,1010.63995361,21.7486743927,25.5100002289,0.0,0.0,-0.313694387674,0.166458845139,-0.206894442439,0.0,0.0,-0.250514000654,0.131427496672,-0.0296298358589,0.0,0.0,0.0,10,1,0,2.24345414697e+13,1.15401625633,,,,,,,,,,,,,,,,,,,,-0.0206302981824,0.00884702522308,-0.0112577136606,0.0,0,2,0,0.794332504272,0,1,0.0,0.0025641026441,0.0,0.0371287129819,0.99816006422,0.776942372322,-0.998161792755,0.0,7,0,10.0,10.0,10.0,10.0,0.0,0.0,0.0,0.0,,,,-0.143318608403,0.0796364992857,-0.0536704733968,0,0,0.0,0.0,4.48099994659,0,77,,,,,,,,,,,,,,,,,,,,,,,,,,,,,,,,,11.2807617188,11.3901109695,-1.0,-1.0,,,,,,,,,,,,,,,,,,,,,,,,,,,,,,,,,1.55009353161,-0.655453264713,0.0407229997218,0.013946373947,0.00453271018341,1.70004367828,,,,,,,,,,,,,,,,,,,,,,,,,,,,,,,,,,,,,,,,,,,,,,,,,,,,,,,,,,,,,,,,,35079590,PX4FMU_V1,c4e2232078f2f28cbf97b8280f40fd988a5c2a75,test,305419904.0
0.0287583414465,-0.0174411479384,2.38511395454,0.00801803730428,-0.000436207919847,-0.0190062411129,-0.0156018231064,-0.260251551867,-9.76757717133,0.0,-0.00156632135622,2.32951593399,0.0,-0.0156018231064,-0.260251551867,-9.76757717133,0.00856888666749,0.00432954309508,-0.0358699411154,-0.323133319616,-0.244307249784,0.489435642958,1010.65997314,21.5818443298,25.5100002289,0.0,0.0,-0.313694387674,0.166458845139,-0.206894442439,0.0,0.0,-0.250514000654,0.131427496672,-0.0296298358589,0.0,0.0,0.0,10,1,0,2.24345414697e+13,1.15401625633,,,,,,,,,,,,,,,,,,,,-0.0197902750224,0.0103783514351,-0.00552285509184,0.0,0,2,0,0.794332504272,0,1,0.0,0.0025641026441,0.0,0.0371287129819,0.99816006422,0.776942372322,-0.998161792755,0.0,7,0,10.0,10.0,10.0,10.0,0.0,0.0,0.0,0.0,,,,-0.144214853644,0.0793972685933,-0.0558252744377,0,0,0.0,0.0,4.48099994659,0,77,,,,,,,,,,,,,,,,,,,,,,,,,,,,,,,,,11.2891426086,11.3899259567,-1.0,-1.0,,,,,,,,,,,,,,,,,,,,,,,,,,,,,,,,,1.55009353161,-0.655453264713,0.0407229997218,0.013946373947,0.00453271018341,1.70004367828,,,,,,,,,,,,,,,,,,,,,,,,,,,,,,,,,,,,,,,,,,,,,,,,,,,,,,,,,,,,,,,,,35101880,PX4FMU_V1,c4e2232078f2f28cbf97b8280f40fd988a5c2a75,test,305419904.0
0.0290046762675,-0.0170533917844,2.38497400284,0.0179162789136,0.0161113739014,0.00168831739575,0.267078638077,-0.271439611912,-9.61355304718,0.0,-0.00156632135622,2.32951593399,0.0,0.267078638077,-0.271439611912,-9.61355304718,0.0167222470045,0.0124237071723,0.0261002294719,-0.297446668148,-0.221836894751,0.493886202574,1010.63995361,21.7486743927,25.5100002289,0.0,0.0,-0.313694387674,0.166458845139,-0.206861332059,0.0,0.0,-0.250514000654,0.131427496672,-0.0285795480013,0.0,0.0,0.0,10,1,0,2.32558533018e+13,1.15419650078,,,,,,,,,,,,,,,,,,,,-0.0212370827794,0.00797510519624,-0.00860553048551,0.0,0,2,0,0.793171584606,0,1,0.0,0.0025641026441,0.0,0.0371287129819,0.99816006422,0.776942372322,-0.998161792755,0.0,7,0,10.0,10.0,10.0,10.0,0.0,0.0,0.0,0.0,,,,-0.145445898175,0.0774583369493,-0.0556818842888,0,0,0.0,0.0,4.48099994659,0,77,,,,,,,,,,,,,,,,,,,,,,,,,,,,,,,,,11.3059043884,11.38975811,-1.0,-1.0,,,,,,,,,,,,,,,,,,,,,,,,,,,,,,,,,1.55009353161,-0.655453264713,0.0407229997218,0.013946373947,0.00453271018341,1.70004367828,,,,,,,,,,,,,,,,,,,,,,,,,,,,,,,,,,,,,,,,,,,,,,,,,,,,,,,,,,,,,,,,,35122918,PX4FMU_V1,c4e2232078f2f28cbf97b8280f40fd988a5c2a75,test,305419904.0
0.0289677139372,-0.0172040779144,2.38591551781,-0.00816228613257,-0.019814170897,0.00888733193278,-0.187305957079,-0.122479237616,-9.66351318359,0.0,-0.00156632135622,2.32951593399,0.0,-0.187305957079,-0.122479237616,-9.66351318359,-0.0157393962145,-0.0281575806439,-0.0157436951995,-0.289190232754,-0.228494778275,0.492105990648,1010.63995361,21.7486743927,25.5100002289,0.0,0.0,-0.313694387674,0.166458845139,-0.207665488124,0.0,0.0,-0.250514000654,0.131427496672,-0.0266503337771,0.0,0.0,0.0,10,1,0,2.38233971589e+13,1.154317379,,,,,,,,,,,,,,,,,,,,-0.0174217298627,0.0130830155686,-0.00760265113786,0.0,0,2,0,0.793171584606,0,1,0.0,0.0025641026441,0.0,0.0371287129819,0.99816006422,0.776942372322,-0.998161792755,0.0,7,0,10.0,10.0,10.0,10.0,0.0,0.0,0.0,0.0,,,,-0.145021736622,0.0785707980394,-0.056547511369,0,0,0.0,0.0,4.48099994659,0,77,,,,,,,,,,,,,,,,,,,,,,,,,,,,,,,,,11.2975234985,11.3895730972,-1.0,-1.0,,,,,,,,,,,,,,,,,,,,,,,,,,,,,,,,,1.55009353161,-0.655453264713,0.0407229997218,0.013946373947,0.00453271018341,1.70004367828,,,,,,,,,,,,,,,,,,,,,,,,,,,,,,,,,,,,,,,,,,,,,,,,,,,,,,,,,,,,,,,,,35144261,PX4FMU_V1,c4e2232078f2f28cbf97b8280f40fd988a5c2a75,test,305419904.0
0.0287913326174,-0.0172802135348,2.38645243645,-0.00273316656239,-0.00444375304505,-0.00812662299722,0.136879995465,-0.108017079532,-9.61129188538,0.0,0.0,2.32951593399,0.0,0.136879995465,-0.108017079532,-9.61129188538,0.00186833087355,-0.000209417557926,0.0181703455746,-0.29652929306,-0.220172420144,0.492105990648,1010.64996338,21.6652584076,25.5100002289,0.0,0.0,-0.313694387674,0.166458845139,-0.207575798035,0.0,0.0,-0.250514000654,0.131427496672,-0.0261987857521,0.0,0.0,0.0,10,1,0,2.43983062139e+13,1.15443694592,,,,,,,,,,,,,,,,,,,,-0.0183571893722,0.011811375618,-0.00735877687111,0.0,0,2,0,0.793171584606,0,1,0.0,-0.0,0.0,0.0346534661949,1.0,0.776942372322,-0.998161792755,0.0,7,0,10.0,10.0,10.0,10.0,0.0,0.0,0.0,0.0,,,,-0.143942326307,0.0864129886031,-0.0571851357818,0,0,0.0,0.0,4.48099994659,0,77,,,,,,,,,,,,,,,,,,,,,,,,,,,,,,,,,11.2975234985,11.3893890381,-1.0,-1.0,,,,,,,,,,,,,,,,,,,,,,,,,,,,,,,,,1.55009353161,-0.655453264713,0.0407229997218,0.013946373947,0.00453271018341,1.70004367828,,,,,,,,,,,,,,,,,,,,,,,,,,,,,,,,,,,,,,,,,,,,,,,,,,,,,,,,,,,,,,,,,35166169,PX4FMU_V1,c4e2232078f2f28cbf97b8280f40fd988a5c2a75,test,305419904.0
0.0285935308784,-0.017570309341,2.3863298893,-0.0113125676289,-0.0220728442073,0.0155225628987,-0.083244368434,-0.288156092167,-9.62937259674,0.0,-0.00156632135622,2.32951593399,0.0,-0.083244368434,-0.288156092167,-9.62937259674,-0.0155108738691,-0.0266303271055,-0.00623461604118,-0.270842641592,-0.274267703295,0.507237792015,1010.63000488,21.8320903778,25.5100002289,0.0,0.0,-0.313694387674,0.166458845139,-0.208144083619,0.0,0.0,-0.250514000654,0.131427496672,-0.0258616153151,0.0,0.0,0.0,10,1,0,2.4991194153e+13,1.1545573473,,,,,,,,,,,,,,,,,,,,-0.0171713903546,0.0132751325145,-0.0108846528456,0.0,0,2,0,0.793171584606,0,1,0.0,0.0025641026441,0.0,0.0371287129819,0.99816006422,0.776942372322,-0.998161792755,0.0,7,0,10.0,10.0,10.0,10.0,0.0,0.0,0.0,0.0,,,,-0.143400192261,0.0800435617566,-0.0570417828858,0,0,0.0,0.0,4.48099994659,0,77,,,,,,,,,,,,,,,,,,,,,,,,,,,,,,,,,11.2891426086,11.3892889023,-1.0,-1.0,,,,,,,,,,,,,,,,,,,,,,,,,,,,,,,,,1.55009353161,-0.655453264713,0.0407229997218,0.013946373947,0.00453271018341,1.70004367828,,,,,,,,,,,,,,,,,,,,,,,,,,,,,,,,,,,,,,,,,,,,,,,,,,,,,,,,,,,,,,,,,35187474,PX4FMU_V1,c4e2232078f2f28cbf97b8280f40fd988a5c2a75,test,305419904.0
0.028543414548,-0.0175690986216,2.38735485077,0.00963185727596,0.00946336705238,-0.0198290757835,0.087713778019,-0.180820405483,-9.64148712158,0.0,-0.00156632135622,2.32951593399,0.0,0.087713778019,-0.180820405483,-9.64148712158,0.0167341977358,0.0185639970005,-0.00242289062589,-0.300198793411,-0.221836894751,0.49032574892,1010.63995361,21.7486743927,25.5,0.0,0.0,-0.313694387674,0.166458845139,-0.209551915526,0.0,0.0,-0.250514000654,0.131427496672,-0.0263543426991,0.0,0.0,0.0,10,1,0,2.56057582551e+13,1.15467917919,,,,,,,,,,,,,,,,,,,,-0.0198626331985,0.00917469151318,-0.00573557801545,0.0,0,2,0,0.793171584606,0,1,0.0,0.0025641026441,0.0,0.0371287129819,0.99816006422,0.776942372322,-0.998161792755,0.0,7,0,10.0,10.0,10.0,10.0,0.0,0.0,0.0,0.0,,,,-0.143157631159,0.0800379216671,-0.0580662600696,0,0,0.0,0.0,4.48099994659,0,77,,,,,,,,,,,,,,,,,,,,,,,,,,,,,,,,,11.3059043884,11.3891143799,-1.0,-1.0,,,,,,,,,,,,,,,,,,,,,,,,,,,,,,,,,1.55009353161,-0.655453264713,0.0407229997218,0.013946373947,0.00453271018341,1.70004367828,,,,,,,,,,,,,,,,,,,,,,,,,,,,,,,,,,,,,,,,,,,,,,,,,,,,,,,,,,,,,,,,,35210189,PX4FMU_V1,c4e2232078f2f28cbf97b8280f40fd988a5c2a75,test,305419904.0
0.0286905355752,-0.017456728965,2.38827252388,0.00900502502918,-0.00287756090984,0.0290335640311,-0.245028704405,-0.41151624918,-9.67547225952,0.0,-0.00156632135622,2.32951593399,0.0,-0.245028704405,-0.41151624918,-9.67547225952,0.00111736671533,-0.0144856236875,0.014740170911,-0.29652929306,-0.233488172293,0.484985113144,1010.63995361,21.7486743927,25.5,0.0,0.0,-0.313694387674,0.166458845139,-0.209815338254,0.0,0.0,-0.250514000654,0.131427496672,-0.0256285667419,0.0,0.0,0.0,10,1,0,2.59087589704e+13,1.15473806858,,,,,,,,,,,,,,,,,,,,-0.0198777187616,0.0107060335577,-0.0132025908679,0.0,0,2,0,0.793171584606,0,1,0.0,0.0025641026441,0.0,0.0371287129819,0.99816006422,0.776942372322,-0.998161792755,0.0,7,0,10.0,10.0,10.0,10.0,0.0,0.0,0.0,0.0,,,,-0.143900513649,0.0794765427709,-0.0589837096632,0,0,0.0,0.0,4.48099994659,0,77,,,,,,,,,,,,,,,,,,,,,,,,,,,,,,,,,11.2891426086,11.3889226913,-1.0,-1.0,,,,,,,,,,,,,,,,,,,,,,,,,,,,,,,,,1.55009353161,-0.655453264713,0.0407229997218,0.013946373947,0.00453271018341,1.70004367828,,,,,,,,,,,,,,,,,,,,,,,,,,,,,,,,,,,,,,,,,,,,,,,,,,,,,,,,,,,,,,,,,35230690,PX4FMU_V1,c4e2232078f2f28cbf97b8280f40fd988a5c2a75,test,305419904.0
0.0286864433438,-0.0174802429974,2.38782191277,0.00128036539536,-0.00179388187826,-0.0339668691158,0.0530299320817,-0.168444901705,-9.68935680389,0.0,-0.00156632135622,2.32951593399,0.0,0.0530299320817,-0.168444901705,-9.68935680389,0.00446363678202,0.00539718940854,-0.0312719792128,-0.26075142622,-0.233488172293,0.489435642958,1010.63000488,21.8320903778,25.5,0.0,0.0,-0.313694387674,0.166458845139,-0.211007788777,0.0,0.0,-0.250514000654,0.131427496672,-0.0255651567131,0.0,0.0,0.0,10,1,0,2.65373446308e+13,1.15485823154,,,,,,,,,,,,,,,,,,,,-0.0188703946769,0.0105804093182,-0.00368497474119,0.0,0,2,0,0.793171584606,0,1,0.0,0.0025641026441,0.0,0.0371287129819,0.99816006422,0.776942372322,-0.998161792755,0.0,7,0,10.0,10.0,10.0,10.0,0.0,0.0,0.0,0.0,,,,-0.143876522779,0.0795938819647,-0.0585333667696,0,0,0.0,0.0,4.48099994659,0,77,,,,,,,,,,,,,,,,,,,,,,,,,,,,,,,,,11.2975234985,11.3887395859,-1.0,-1.0,,,,,,,,,,,,,,,,,,,,,,,,,,,,,,,,,1.55009353161,-0.655453264713,0.0407229997218,0.013946373947,0.00453271018341,1.70004367828,,,,,,,,,,,,,,,,,,,,,,,,,,,,,,,,,,,,,,,,,,,,,,,,,,,,,,,,,,,,,,,,,35252000,PX4FMU_V1,c4e2232078f2f28cbf97b8280f40fd988a5c2a75,test,305419904.0
0.0286911148578,-0.0174407381564,2.3876144886,0.00134393270127,-0.0108487531543,0.0284225232899,-0.00546901719645,-0.272997319698,-9.66753768921,0.0,-0.00156632135622,2.32951593399,0.0,-0.00546901719645,-0.272997319698,-9.66753768921,-0.00351630803198,-0.0211210288107,0.0223877113312,-0.300198793411,-0.287583470345,0.509908139706,1010.60998535,21.998922348,25.5,0.0,0.0,-0.313694387674,0.166458845139,-0.211822912097,0.0,0.0,-0.250514000654,0.131427496672,-0.0248357243836,0.0,0.0,0.0,10,1,0,2.71825103749e+13,1.15497863293,,,,,,,,,,,,,,,,,,,,-0.0188814830035,0.011731846258,-0.0130121866241,0.0,0,2,0,0.793171584606,0,1,0.0,0.0025641026441,0.0,0.0371287129819,0.99816006422,0.776942372322,-0.998161792755,0.0,7,0,10.0,10.0,10.0,10.0,0.0,0.0,0.0,0.0,,,,-0.143898248672,0.0793962180614,-0.0583253838122,0,0,0.0,0.0,4.48099994659,0,77,,,,,,,,,,,,,,,,,,,,,,,,,,,,,,,,,11.2975234985,11.3885564804,-1.0,-1.0,,,,,,,,,,,,,,,,,,,,,,,,,,,,,,,,,1.55009353161,-0.655453264713,0.0407229997218,0.013946373947,0.00453271018341,1.70004367828,,,,,,,,,,,,,,,,,,,,,,,,,,,,,,,,,,,,,,,,,,,,,,,,,,,,,,,,,,,,,,,,,35273952,PX4FMU_V1,c4e2232078f2f28cbf97b8280f40fd988a5c2a75,test,305419904.0
0.0285578835756,-0.0176449585706,2.38812947273,-0.00426641572267,-0.00863498542458,-0.0304169170558,0.134411424398,-0.159310251474,-9.58140087128,0.0,-0.00156632135622,2.32951593399,0.0,0.134411424398,-0.159310251474,-9.58140087128,0.00213448586874,0.000933271599934,-0.0399509742856,-0.255247175694,-0.21601125598,0.484095007181,1010.60998535,21.998922348,25.5,0.0,0.0,-0.313694387674,0.166458845139,-0.215330138803,0.0,0.0,-0.250514000654,0.131427496672,-0.0263695921749,0.0,0.0,0.0,10,1,0,2.78419451412e+13,1.15509879589,,,,,,,,,,,,,,,,,,,,-0.018066033721,0.0115768369287,-0.00426378846169,0.0,0,2,0,0.793171584606,0,1,0.0,0.0025641026441,0.0,0.0371287129819,0.99816006422,0.776942372322,-0.998161792755,0.0,7,0,10.0,10.0,10.0,10.0,0.0,0.0,0.0,0.0,,,,-0.143235906959,0.0804176107049,-0.0588421709836,0,0,0.0,0.0,4.48099994659,0,77,,,,,,,,,,,,,,,,,,,,,,,,,,,,,,,,,11.2975234985,11.3884658813,-1.0,-1.0,,,,,,,,,,,,,,,,,,,,,,,,,,,,,,,,,1.55009353161,-0.655453264713,0.0407229997218,0.013946373947,0.00453271018341,1.70004367828,,,,,,,,,,,,,,,,,,,,,,,,,,,,,,,,,,,,,,,,,,,,,,,,,,,,,,,,,,,,,,,,,35295216,PX4FMU_V1,c4e2232078f2f28cbf97b8280f40fd988a5c2a75,test,305419904.0
0.0285433251411,-0.0175487175584,2.38870477676,0.00456089619547,-0.000890710973181,0.0250758863986,-0.1194704175,-0.189382478595,-9.54530525208,0.0,-0.00156632135622,2.32951593399,0.0,-0.1194704175,-0.189382478595,-9.54530525208,0.00351517577656,-0.00601207837462,0.0463525950909,-0.265338361263,-0.23265594244,0.488545536995,1010.67999268,21.4150180817,25.5100002289,0.0,0.0,-0.313694387674,0.166458845139,-0.217114210129,0.0,0.0,-0.250514000654,0.131427496672,-0.0277860146016,0.0,0.0,0.0,10,1,0,2.81817655542e+13,1.15515959263,,,,,,,,,,,,,,,,,,,,-0.01920472458,0.0105075500906,-0.0126737849787,0.0,0,2,0,0.793171584606,0,1,0.0,0.0025641026441,0.0,0.0371287129819,0.99816006422,0.776942372322,-0.998161792755,0.0,7,0,10.0,10.0,10.0,10.0,0.0,0.0,0.0,0.0,,,,-0.143167749047,0.0799366012216,-0.0594160035253,0,0,0.0,0.0,4.48099994659,0,77,,,,,,,,,,,,,,,,,,,,,,,,,,,,,,,,,11.3059043884,11.3882846832,-1.0,-1.0,,,,,,,,,,,,,,,,,,,,,,,,,,,,,,,,,1.55009353161,-0.655453264713,0.0407229997218,0.013946373947,0.00453271018341,1.70004367828,,,,,,,,,,,,,,,,,,,,,,,,,,,,,,,,,,,,,,,,,,,,,,,,,,,,,,,,,,,,,,,,,35316421,PX4FMU_V1,c4e2232078f2f28cbf97b8280f40fd988a5c2a75,test,305419904.0
0.0285990554839,-0.0176356825978,2.38909435272,0.00677484227344,0.00489779049531,-0.0254842713475,-0.023625023663,-0.129570245743,-9.67375946045,0.0,0.0,2.32951593399,0.0,-0.023625023663,-0.129570245743,-9.67375946045,0.0122814988717,0.0190518945456,-0.0444250628352,-0.293777137995,-0.273435473442,0.499226868153,1010.61999512,21.9155063629,25.5100002289,0.0,0.0,-0.313694387674,0.166458845139,-0.216097980738,0.0,0.0,-0.250514000654,0.131427496672,-0.02578080073,0.0,0.0,0.0,10,1,0,2.88689498358e+13,1.15528023243,,,,,,,,,,,,,,,,,,,,-0.0194681882858,0.0108280442655,-0.00515195727348,0.0,0,2,0,0.792134582996,0,1,0.0,-0.0,0.0,0.0346534661949,1.0,0.776942372322,-0.998161792755,0.0,7,0,10.0,10.0,10.0,10.0,0.0,0.0,0.0,0.0,,,,-0.142980456352,0.0881904363632,-0.0598306506872,0,0,0.0,0.0,4.48099994659,0,77,,,,,,,,,,,,,,,,,,,,,,,,,,,,,,,,,11.2975234985,11.3881120682,-1.0,-1.0,,,,,,,,,,,,,,,,,,,,,,,,,,,,,,,,,1.54998469353,-0.655385553837,0.0407922528684,0.0139562739059,0.00497593404725,1.69977545738,,,,,,,,,,,,,,,,,,,,,,,,,,,,,,,,,,,,,,,,,,,,,,,,,,,,,,,,,,,,,,,,,35338317,PX4FMU_V1,c4e2232078f2f28cbf97b8280f40fd988a5c2a75,test,305419904.0
0.0289067775011,-0.0171432066709,2.38921999931,0.021056169644,0.0169881824404,0.0161321498454,0.0392234772444,-0.146429881454,-9.80887317657,0.0,-0.00156632135622,2.32951593399,0.0,0.0392234772444,-0.146429881454,-9.80887317657,0.0147646646947,0.00652307132259,0.0476570576429,-0.307537823915,-0.271770983934,0.504567444324,1010.61999512,21.9155063629,25.5100002289,0.0,0.0,-0.313694387674,0.166458845139,-0.218404278159,0.0,0.0,-0.250514000654,0.131427496672,-0.026763195172,0.0,0.0,0.0,10,1,0,2.95675614986e+13,1.15540003777,,,,,,,,,,,,,,,,,,,,-0.0215859375894,0.00791974365711,-0.0114090628922,0.0,0,2,0,0.792134582996,0,1,0.0,0.0025641026441,0.0,0.0371287129819,0.99816006422,0.776942372322,-0.998161792755,0.0,7,0,10.0,10.0,10.0,10.0,0.0,0.0,0.0,0.0,,,,-0.14498950541,0.0779092907906,-0.0599282681942,0,0,0.0,0.0,4.48099994659,0,77,,,,,,,,,,,,,,,,,,,,,,,,,,,,,,,,,11.3059043884,11.3879394531,-1.0,-1.0,,,,,,,,,,,,,,,,,,,,,,,,,,,,,,,,,1.54998469353,-0.655385553837,0.0407922528684,0.0139562739059,0.00497593404725,1.69977545738,,,,,,,,,,,,,,,,,,,,,,,,,,,,,,,,,,,,,,,,,,,,,,,,,,,,,,,,,,,,,,,,,35358942,PX4FMU_V1,c4e2232078f2f28cbf97b8280f40fd988a5c2a75,test,305419904.0
0.0289806667715,-0.0172373261303,2.38997840881,0.000549579621293,-0.0088560776785,-0.00482237990946,-0.217666983604,-0.342473804951,-9.75711250305,0.0,-0.00156632135622,2.32951593399,0.0,-0.217666983604,-0.342473804951,-9.75711250305,-0.00166382384486,-0.00742865167558,-0.0354102551937,-0.263503581285,-0.199366554618,0.484985113144,1010.64996338,21.6652584076,25.5100002289,0.0,0.0,-0.313694387674,0.166458845139,-0.216844543815,0.0,0.0,-0.250514000654,0.131427496672,-0.025266693905,0.0,0.0,0.0,10,1,0,3.02857941156e+13,1.15552031994,,,,,,,,,,,,,,,,,,,,-0.0189688559622,0.0113407382742,-0.00837994553149,0.0,0,2,0,0.792134582996,0,1,0.0,0.0025641026441,0.0,0.0371287129819,0.99816006422,0.776942372322,-0.998161792755,0.0,7,0,10.0,10.0,10.0,10.0,0.0,0.0,0.0,0.0,,,,-0.145364701748,0.07838036865,-0.0606886819005,-10,-18,1.40899813175,2.45590591431,4.48099994659,43,77,,,,,,,,,,,,,,,,,,,,,,,,,,,,,,,,,11.2975234985,11.3878488541,-1.0,-1.0,,,,,,,,,,,,,,,,,,,,,,,,,,,,,,,,,1.54998469353,-0.655385553837,0.0407922528684,0.0139562739059,0.00497593404725,1.69977545738,,,,,,,,,,,,,,,,,,,,,,,,,,,,,,,,,,,,,,,,,,,,,,,,,,,,,,,,,,,,,,,,,35380067,PX4FMU_V1,c4e2232078f2f28cbf97b8280f40fd988a5c2a75,test,305419904.0
0.0290357805789,-0.0169798042625,2.39075136185,0.00828586239368,0.00396891310811,0.00857583526522,0.0517993271351,-0.0951660424471,-9.6963596344,0.0,-0.00156632135622,2.32951593399,0.0,0.0517993271351,-0.0951660424471,-9.6963596344,0.00797993782908,-0.00311303604394,0.0389250442386,-0.297446668148,-0.211850091815,0.495666414499,1010.64996338,21.6652584076,25.5100002289,0.0,0.0,-0.313694387674,0.166458845139,-0.216275572777,0.0,0.0,-0.250514000654,0.131427496672,-0.0243960153311,0.0,0.0,0.0,10,1,0,3.10220286853e+13,1.15564060211,,,,,,,,,,,,,,,,,,,,-0.0200112294406,0.00950613059103,-0.0105051109567,0.0,0,2,0,0.792134582996,0,1,0.0,0.0025641026441,0.0,0.0371287129819,0.99816006422,0.779448628426,-0.998161792755,0.0,7,0,10.0,10.0,10.0,10.0,0.0,0.0,0.0,0.0,,,,-0.145646676421,0.0770929902792,-0.0614582337439,0,0,0.0,0.0,4.48099994659,0,77,,,,,,,,,,,,,,,,,,,,,,,,,,,,,,,,,11.2975234985,11.387676239,-1.0,-1.0,,,,,,,,,,,,,,,,,,,,,,,,,,,,,,,,,1.54998469353,-0.655385553837,0.0407922528684,0.0139562739059,0.00497593404725,1.69977545738,,,,,,,,,,,,,,,,,,,,,,,,,,,,,,,,,,,,,,,,,,,,,,,,,,,,,,,,,,,,,,,,,35402858,PX4FMU_V1,c4e2232078f2f28cbf97b8280f40fd988a5c2a75,test,305419904.0
0.0289029721171,-0.0172934215516,2.39093852043,-0.0112388320267,-0.0218623932451,0.00408636359498,-0.243198305368,-0.265649586916,-9.76716423035,0.0,0.0,2.32951593399,0.0,-0.243198305368,-0.265649586916,-9.76716423035,-0.0110274292529,-0.0185120999813,-0.0199541784823,-0.265338361263,-0.209353372455,0.500116884708,1010.63995361,21.7486743927,25.5199985504,0.0,0.0,-0.313694387674,0.166458845139,-0.216143280268,0.0,0.0,-0.250514000654,0.131427496672,-0.0234607961029,0.0,0.0,0.0,10,1,0,3.13969721999e+13,1.1557008028,,,,,,,,,,,,,,,,,,,,-0.0173240099102,0.0140843978152,-0.00986381992698,0.0,0,2,0,0.792134582996,0,1,0.0,-0.0,0.0,0.0346534661949,1.0,0.776942372322,-0.998161792755,0.0,7,0,10.0,10.0,10.0,10.0,0.0,0.0,0.0,0.0,,,,-0.1445004493,0.0864791274071,-0.0616724304855,-2,23,0.211005926132,-1.40927708149,4.48099994659,47,77,,,,,,,,,,,,,,,,,,,,,,,,,,,,,,,,,11.3059043884,11.387512207,-1.0,-1.0,,,,,,,,,,,,,,,,,,,,,,,,,,,,,,,,,1.54998469353,-0.655385553837,0.0407922528684,0.0139562739059,0.00497593404725,1.69977545738,,,,,,,,,,,,,,,,,,,,,,,,,,,,,,,,,,,,,,,,,,,,,,,,,,,,,,,,,,,,,,,,,35423400,PX4FMU_V1,c4e2232078f2f28cbf97b8280f40fd988a5c2a75,test,305419904.0
0.028859462589,-0.017222577706,2.39088201523,0.00351206632331,0.0016749141505,-0.0173962004483,0.135776013136,-0.161391556263,-9.57390022278,0.0,0.0,2.32951593399,0.0,0.135776013136,-0.161391556263,-9.57390022278,0.00745451450348,0.00453029526398,0.00514857005328,-0.26166883111,-0.280925571918,0.512578368187,1010.63995361,21.7486743927,25.5199985504,0.0,0.0,-0.313694387674,0.166458845139,-0.217892155051,0.0,0.0,-0.250514000654,0.131427496672,-0.0247130319476,0.0,0.0,0.0,10,1,0,3.21598049485e+13,1.15582096577,,,,,,,,,,,,,,,,,,,,-0.0192133635283,0.0109784910455,-0.00663276901469,0.0,0,2,0,0.792134582996,0,1,0.0,-0.0,0.0,0.0346534661949,1.0,0.776942372322,-0.998161792755,0.0,7,0,10.0,10.0,10.0,10.0,0.0,0.0,0.0,0.0,,,,-0.144283041358,0.0861248448491,-0.0616146586835,0,0,0.0,0.0,4.48099994659,0,77,,,,,,,,,,,,,,,,,,,,,,,,,,,,,,,,,11.2975234985,11.3873329163,-1.0,-1.0,,,,,,,,,,,,,,,,,,,,,,,,,,,,,,,,,1.54998469353,-0.655385553837,0.0407922528684,0.0139562739059,0.00497593404725,1.69977545738,,,,,,,,,,,,,,,,,,,,,,,,,,,,,,,,,,,,,,,,,,,,,,,,,,,,,,,,,,,,,,,,,35444698,PX4FMU_V1,c4e2232078f2f28cbf97b8280f40fd988a5c2a75,test,305419904.0
0.0287906583399,-0.0174278542399,2.39184880257,-0.00561270024627,-0.0153050757945,0.00819004699588,-0.142569735646,-0.287986665964,-9.70998764038,0.0,-0.00156632135622,2.32951593399,0.0,-0.142569735646,-0.287986665964,-9.70998764038,-0.00998752191663,-0.0150426272303,-0.0201995912939,-0.269925236702,-0.290080159903,0.502787232399,1010.64996338,21.6652584076,25.5199985504,0.0,0.0,-0.313694387674,0.166458845139,-0.218298763037,0.0,0.0,-0.250514000654,0.131427496672,-0.0242406614125,0.0,0.0,0.0,10,1,0,3.29404823634e+13,1.15594124794,,,,,,,,,,,,,,,,,,,,-0.0180461332202,0.0123030683026,-0.0106125269085,0.0,0,2,0,0.792134582996,0,1,0.0,0.0025641026441,0.0,0.0371287129819,0.99816006422,0.776942372322,-0.998161792755,0.0,7,0,10.0,10.0,10.0,10.0,0.0,0.0,0.0,0.0,,,,-0.144429117441,0.0793339163065,-0.062560133636,0,0,0.0,0.0,4.48099994659,0,77,,,,,,,,,,,,,,,,,,,,,,,,,,,,,,,,,11.3059043884,11.387178421,-1.0,-1.0,,,,,,,,,,,,,,,,,,,,,,,,,,,,,,,,,1.54998469353,-0.655385553837,0.0407922528684,0.0139562739059,0.00497593404725,1.69977545738,,,,,,,,,,,,,,,,,,,,,,,,,,,,,,,,,,,,,,,,,,,,,,,,,,,,,,,,,,,,,,,,,35466570,PX4FMU_V1,c4e2232078f2f28cbf97b8280f40fd988a5c2a75,test,305419904.0
0.0287357382476,-0.0173460058868,2.39143109322,0.00239118328318,0.00153940194286,-0.0192819572985,0.124215729535,-0.0750925168395,-9.63808727264,0.0,-0.00156632135622,2.32951593399,0.0,0.124215729535,-0.0750925168395,-9.63808727264,0.00566602451727,0.00360096967779,0.00157139811199,-0.275429517031,-0.245971724391,0.503677368164,1010.58996582,22.1657581329,25.5199985504,0.0,0.0,-0.313694387674,0.166458845139,-0.219692483544,0.0,0.0,-0.250514000654,0.131427496672,-0.0246777236462,0.0,0.0,0.0,10,1,0,3.37417223537e+13,1.15606153011,,,,,,,,,,,,,,,,,,,,-0.019050532952,0.0100600440055,-0.00642884848639,0.0,0,2,0,0.792134582996,0,1,0.0,0.0025641026441,0.0,0.0371287129819,0.99816006422,0.776942372322,-0.998161792755,0.0,7,0,10.0,10.0,10.0,10.0,0.0,0.0,0.0,0.0,,,,-0.144151374698,0.0789243578911,-0.0621409453452,2,3,-0.201778978109,-0.247187077999,4.48099994659,55,77,,,,,,,,,,,,,,,,,,,,,,,,,,,,,,,,,11.3059043884,11.3870973587,-1.0,-1.0,,,,,,,,,,,,,,,,,,,,,,,,,,,,,,,,,1.54998469353,-0.655385553837,0.0407922528684,0.0139562739059,0.00497593404725,1.69977545738,,,,,,,,,,,,,,,,,,,,,,,,,,,,,,,,,,,,,,,,,,,,,,,,,,,,,,,,,,,,,,,,,35487961,PX4FMU_V1,c4e2232078f2f28cbf97b8280f40fd988a5c2a75,test,305419904.0
0.0286979936063,-0.0174828078598,2.39237880707,-0.00147975981236,-0.0146424937993,0.0246790237725,-0.101075530052,-0.352653861046,-9.67549610138,0.0,-0.00156632135622,2.32951593399,0.0,-0.101075530052,-0.352653861046,-9.67549610138,-0.00746733043343,-0.0212269630283,0.0151273561642,-0.298364013433,-0.214346781373,0.499226868153,1010.63995361,21.7486743927,25.5199985504,0.0,0.0,-0.313694387674,0.166458845139,-0.220913916826,0.0,0.0,-0.250514000654,0.131427496672,-0.0252657830715,0.0,0.0,0.0,10,1,0,3.4562830762e+13,1.1561819315,,,,,,,,,,,,,,,,,,,,-0.0181464888155,0.0124720875174,-0.0116444397718,0.0,0,2,0,0.792134582996,0,1,0.0,0.0025641026441,0.0,0.0371287129819,0.99816006422,0.776942372322,-0.998161792755,0.0,7,0,10.0,10.0,10.0,10.0,0.0,0.0,0.0,0.0,,,,-0.143854409456,0.0798781067133,-0.0630889385939,-2,8,0.315279185772,-1.13051724434,4.48099994659,0,77,,,,,,,,,,,,,,,,,,,,,,,,,,,,,,,,,11.3059043884,11.3869352341,-1.0,-1.0,,,,,,,,,,,,,,,,,,,,,,,,,,,,,,,,,1.54998469353,-0.655385553837,0.0407922528684,0.0139562739059,0.00497593404725,1.69977545738,,,,,,,,,,,,,,,,,,,,,,,,,,,,,,,,,,,,,,,,,,,,,,,,,,,,,,,,,,,,,,,,,35509208,PX4FMU_V1,c4e2232078f2f28cbf97b8280f40fd988a5c2a75,test,305419904.0
0.0286430083215,-0.0174608975649,2.3909060955,0.00569209875539,0.00594953820109,-0.0272182989866,0.0985860154033,-0.100291870534,-9.65986537933,0.0,-0.00156632135622,2.32951593399,0.0,0.0985860154033,-0.100291870534,-9.65986537933,0.0116653945297,0.0122430436313,-0.0156606473029,-0.26166883111,-0.26261639595,0.50634765625,1010.63000488,21.8320903778,25.5199985504,0.0,0.0,-0.313694387674,0.166458845139,-0.221285134554,0.0,0.0,-0.250514000654,0.131427496672,-0.0253888256848,0.0,0.0,0.0,10,1,0,3.49835655905e+13,1.15624260902,,,,,,,,,,,,,,,,,,,,-0.0194188226014,0.00956137571484,-0.00515976548195,0.0,0,2,0,0.792134582996,0,1,0.0,0.0025641026441,0.0,0.0371287129819,0.99816006422,0.776942372322,-0.998161792755,0.0,7,0,10.0,10.0,10.0,10.0,0.0,0.0,0.0,0.0,,,,-0.143683463335,0.0794985890388,-0.0616167336702,0,0,0.0,0.0,4.48099994659,0,77,,,,,,,,,,,,,,,,,,,,,,,,,,,,,,,,,11.2975234985,11.3867559433,-1.0,-1.0,,,,,,,,,,,,,,,,,,,,,,,,,,,,,,,,,1.54998469353,-0.655385553837,0.0407922528684,0.0139562739059,0.00497593404725,1.69977545738,,,,,,,,,,,,,,,,,,,,,,,,,,,,,,,,,,,,,,,,,,,,,,,,,,,,,,,,,,,,,,,,,35531410,PX4FMU_V1,c4e2232078f2f28cbf97b8280f40fd988a5c2a75,test,305419904.0
0.0287473965436,-0.0173967797309,2.39162969589,0.00837847962976,-0.00360516086221,0.0281341783702,-0.138622522354,-0.264903724194,-9.72841739655,0.0,0.0,2.32951593399,0.0,-0.138622522354,-0.264903724194,-9.72841739655,0.00412869546562,-0.0111550055444,0.0264204833657,-0.249742895365,-0.255126297474,0.510798215866,1010.63995361,21.7486743927,25.5199985504,0.0,0.0,-0.313694387674,0.166458845139,-0.22149348259,0.0,0.0,-0.250514000654,0.131427496672,-0.0247530955821,0.0,0.0,0.0,10,1,0,3.58310372966e+13,1.15636253357,,,,,,,,,,,,,,,,,,,,-0.0197731293738,0.0117781404406,-0.0135746942833,0.0,0,2,0,0.791116058826,0,1,0.0,-0.0,0.0,0.0346534661949,1.0,0.776942372322,-0.998161792755,0.0,7,0,10.0,10.0,10.0,10.0,0.0,0.0,0.0,0.0,,,,-0.143722519279,0.086995922029,-0.0623637810349,0,0,0.0,0.0,4.48099994659,0,77,,,,,,,,,,,,,,,,,,,,,,,,,,,,,,,,,11.3059043884,11.3865938187,-1.0,-1.0,,,,,,,,,,,,,,,,,,,,,,,,,,,,,,,,,1.54998469353,-0.655385553837,0.0407922528684,0.0139562739059,0.00497593404725,1.69977545738,,,,,,,,,,,,,,,,,,,,,,,,,,,,,,,,,,,,,,,,,,,,,,,,,,,,,,,,,,,,,,,,,35552724,PX4FMU_V1,c4e2232078f2f28cbf97b8280f40fd988a5c2a75,test,305419904.0
0.0289680529386,-0.0171327479184,2.3913807869,0.0176756326109,0.0180748216808,-0.029004463926,0.17734888196,-0.119918443263,-9.60204029083,0.0,-0.00156632135622,2.32951593399,0.0,0.17734888196,-0.119918443263,-9.60204029083,0.0224971044809,0.0227628350258,-0.0230129882693,-0.289190232754,-0.252629607916,0.511688292027,1010.69000244,21.3316059113,25.5199985504,0.0,0.0,-0.313694387674,0.166458845139,-0.221875309944,0.0,0.0,-0.250514000654,0.131427496672,-0.0251965001225,0.0,0.0,0.0,10,1,0,3.66978028012e+13,1.15648233891,,,,,,,,,,,,,,,,,,,,-0.0211884919554,0.00777182262391,-0.00496272277087,0.0,0,2,0,0.791116058826,0,1,0.0,0.0025641026441,0.0,0.0371287129819,1.0,0.776942372322,-0.998161792755,0.0,7,0,10.0,10.0,10.0,10.0,0.0,0.0,0.0,0.0,,,,-0.145312771201,0.0778580754995,-0.0620892830193,0,0,0.0,0.0,4.48099994659,0,77,,,,,,,,,,,,,,,,,,,,,,,,,,,,,,,,,11.2975234985,11.3864164352,-1.0,-1.0,,,,,,,,,,,,,,,,,,,,,,,,,,,,,,,,,1.54998469353,-0.655385553837,0.0407922528684,0.0139562739059,0.00497593404725,1.69977545738,,,,,,,,,,,,,,,,,,,,,,,,,,,,,,,,,,,,,,,,,,,,,,,,,,,,,,,,,,,,,,,,,35574955,PX4FMU_V1,c4e2232078f2f28cbf97b8280f40fd988a5c2a75,test,305419904.0
0.0291279386729,-0.016988677904,2.39232087135,0.00372798251919,-0.00761035270989,0.027743274346,-1.67235266417e-05,-0.361463367939,-9.61291885376,0.0,-0.00156632135622,2.32951593399,0.0,-1.67235266417e-05,-0.361463367939,-9.61291885376,-0.00685209594667,-0.0207933746278,0.0341746546328,-0.2855207026,-0.228494778275,0.485875219107,1010.64996338,21.6652584076,25.5199985504,0.0,0.0,-0.313694387674,0.166458845139,-0.219227910042,0.0,0.0,-0.250514000654,0.131427496672,-0.0220681652427,0.0,0.0,0.0,10,1,0,3.75886436106e+13,1.15660238266,,,,,,,,,,,,,,,,,,,,-0.0194801986217,0.0110173104331,-0.0136157749221,0.0,0,2,0,0.791116058826,0,1,0.0,0.0025641026441,0.0,0.0371287129819,0.99816006422,0.776942372322,-0.998161792755,0.0,7,0,10.0,10.0,10.0,10.0,0.0,0.0,0.0,0.0,,,,-0.146119698882,0.0771381929517,-0.0630285590887,0,0,0.0,0.0,4.48099994659,0,77,,,,,,,,,,,,,,,,,,,,,,,,,,,,,,,,,11.2975234985,11.3863277435,-1.0,-1.0,,,,,,,,,,,,,,,,,,,,,,,,,,,,,,,,,1.54998469353,-0.655385553837,0.0407922528684,0.0139562739059,0.00497593404725,1.69977545738,,,,,,,,,,,,,,,,,,,,,,,,,,,,,,,,,,,,,,,,,,,,,,,,,,,,,,,,,,,,,,,,,35595893,PX4FMU_V1,c4e2232078f2f28cbf97b8280f40fd988a5c2a75,test,305419904.0
0.0289799328893,-0.0171626731753,2.39309811592,-0.00754216127098,-0.00803225394338,-0.0270207878202,0.179849892855,-0.126368194818,-9.45088863373,0.0,-0.00156632135622,2.32951593399,0.0,0.179849892855,-0.126368194818,-9.45088863373,-0.0029035480693,-0.000260831031483,-0.049548920244,-0.262586206198,-0.222669139504,0.500116884708,1010.61999512,21.9155063629,25.5199985504,0.0,0.0,-0.313694387674,0.166458845139,-0.219905585051,0.0,0.0,-0.250514000654,0.131427496672,-0.0238107983023,0.0,0.0,0.0,10,1,0,3.80441282478e+13,1.15666270256,,,,,,,,,,,,,,,,,,,,-0.0179196354002,0.0111853098497,-0.00551796797663,0.0,0,2,0,0.791116058826,0,1,0.0,0.0025641026441,0.0,0.0371287129819,0.99816006422,0.776942372322,-0.998161792755,0.0,7,0,10.0,10.0,10.0,10.0,0.0,0.0,0.0,0.0,,,,-0.14538551867,0.0780085921288,-0.0638072416186,5,7,-0.692391335964,-1.0303555727,4.48099994659,0,77,,,,,,,,,,,,,,,,,,,,,,,,,,,,,,,,,11.3059043884,11.3861589432,-1.0,-1.0,,,,,,,,,,,,,,,,,,,,,,,,,,,,,,,,,1.54998469353,-0.655385553837,0.0407922528684,0.0139562739059,0.00497593404725,1.69977545738,,,,,,,,,,,,,,,,,,,,,,,,,,,,,,,,,,,,,,,,,,,,,,,,,,,,,,,,,,,,,,,,,35617112,PX4FMU_V1,c4e2232078f2f28cbf97b8280f40fd988a5c2a75,test,305419904.0
0.0287446398288,-0.0173415224999,2.39356899261,-0.0126078203321,-0.0223760511726,0.0328292362392,-0.134322956204,-0.226816609502,-9.55669593811,0.0,-0.00156632135622,2.32951593399,0.0,-0.134322956204,-0.226816609502,-9.55669593811,-0.0169577524066,-0.0284251868725,0.0448836088181,-0.309372603893,-0.265113115311,0.499226868153,1010.64996338,21.6652584076,25.5199985504,0.0,0.0,-0.313694387674,0.166458845139,-0.221765741706,0.0,0.0,-0.250514000654,0.131427496672,-0.0237892847508,0.0,0.0,0.0,10,1,0,3.89697398374e+13,1.15678310394,,,,,,,,,,,,,,,,,,,,-0.0171086229384,0.0131662786007,-0.0145662128925,0.0,0,2,0,0.791116058826,0,1,0.0,0.0025641026441,0.0,0.0371287129819,0.99816006422,0.776942372322,-0.996323525906,0.0,7,0,10.0,10.0,10.0,10.0,0.0,0.0,0.0,0.0,,,,-0.144212603569,0.0789030194283,-0.0642788484693,0,0,0.0,0.0,4.48099994659,0,77,,,,,,,,,,,,,,,,,,,,,,,,,,,,,,,,,11.2975234985,11.3859815598,-1.0,-1.0,,,,,,,,,,,,,,,,,,,,,,,,,,,,,,,,,1.54998469353,-0.655385553837,0.0407922528684,0.0139562739059,0.00497593404725,1.69977545738,,,,,,,,,,,,,,,,,,,,,,,,,,,,,,,,,,,,,,,,,,,,,,,,,,,,,,,,,,,,,,,,,35638658,PX4FMU_V1,c4e2232078f2f28cbf97b8280f40fd988a5c2a75,test,305419904.0
0.028444390744,-0.0177245847881,2.393409729,-0.0138425594196,-0.0163394715637,-0.0257386788726,0.0403606817126,-0.133691042662,-9.69112682343,0.0,-0.00156632135622,2.32951593399,0.0,0.0403606817126,-0.133691042662,-9.69112682343,-0.00669899489731,-0.0036458701361,-0.044543556869,-0.303868323565,-0.263448625803,0.488545536995,1010.63000488,21.8320903778,25.5199985504,0.0,0.0,-0.313694387674,0.166458845139,-0.22244246304,0.0,0.0,-0.250514000654,0.131427496672,-0.0240172650665,0.0,0.0,0.0,10,1,0,3.99161593692e+13,1.15690326691,,,,,,,,,,,,,,,,,,,,-0.0167527198792,0.0126305054873,-0.00575758190826,0.0,0,2,0,0.791116058826,0,1,0.0,0.0025641026441,0.0,0.0371287129819,0.99816006422,0.776942372322,-0.998161792755,0.0,7,0,10.0,10.0,10.0,10.0,0.0,0.0,0.0,0.0,,,,-0.142709627748,0.0808182656765,-0.0641225576401,0,0,0.0,0.0,4.48099994659,0,77,,,,,,,,,,,,,,,,,,,,,,,,,,,,,,,,,11.2975234985,11.3858041763,-1.0,-1.0,,,,,,,,,,,,,,,,,,,,,,,,,,,,,,,,,1.54998469353,-0.655385553837,0.0407922528684,0.0139562739059,0.00497593404725,1.69977545738,,,,,,,,,,,,,,,,,,,,,,,,,,,,,,,,,,,,,,,,,,,,,,,,,,,,,,,,,,,,,,,,,35659405,PX4FMU_V1,c4e2232078f2f28cbf97b8280f40fd988a5c2a75,test,305419904.0
0.0283430274576,-0.0177283491939,2.39404177666,0.00433925492689,-0.00430777529255,0.0123910484836,-0.0674437582493,-0.124826349318,-9.63840293884,0.0,0.0,2.32951593399,0.0,-0.0674437582493,-0.124826349318,-9.63840293884,0.00697155250236,-0.00593769364059,0.0395714007318,-0.274512171745,-0.218507945538,0.492105990648,1010.63000488,21.8320903778,25.5199985504,0.0,0.0,-0.313694387674,0.166458845139,-0.223779067397,0.0,0.0,-0.250514000654,0.131427496672,-0.0241841115057,0.0,0.0,0.0,10,1,0,4.0882887721e+13,1.15702307224,,,,,,,,,,,,,,,,,,,,-0.0189851410687,0.0120849814266,-0.0115752071142,0.0,0,2,0,0.791116058826,0,1,0.0,-0.0,0.0,0.0346534661949,1.0,0.776942372322,-0.998161792755,0.0,7,0,10.0,10.0,10.0,10.0,0.0,0.0,0.0,0.0,,,,-0.141700297594,0.0886536240578,-0.0647770017385,4,4,-0.505401492119,-0.45606470108,4.48099994659,79,77,,,,,,,,,,,,,,,,,,,,,,,,,,,,,,,,,11.3059043884,11.3857240677,-1.0,-1.0,,,,,,,,,,,,,,,,,,,,,,,,,,,,,,,,,1.54998469353,-0.655385553837,0.0407922528684,0.0139562739059,0.00497593404725,1.69977545738,,,,,,,,,,,,,,,,,,,,,,,,,,,,,,,,,,,,,,,,,,,,,,,,,,,,,,,,,,,,,,,,,35680855,PX4FMU_V1,c4e2232078f2f28cbf97b8280f40fd988a5c2a75,test,305419904.0
0.0285647176206,-0.0176467709243,2.39371752739,0.0167532488704,0.0131371151656,-0.0182853695005,-0.0300060827285,-0.167631879449,-9.67752742767,0.0,0.0,2.32951593399,0.0,-0.0300060827285,-0.167631879449,-9.67752742767,0.0205336771905,0.0228519495577,-0.0425287187099,-0.299281418324,-0.25928747654,0.492996096611,1010.63995361,21.7486743927,25.5299987793,0.0,0.0,-0.313694387674,0.166458845139,-0.223430797458,0.0,0.0,-0.250514000654,0.131427496672,-0.0241050925106,0.0,0.0,0.0,10,1,0,4.18728567112e+13,1.15714287758,,,,,,,,,,,,,,,,,,,,-0.0207430589944,0.0097641358152,-0.00692523596808,0.0,0,2,0,0.791116058826,0,1,0.0,-0.0,0.0,0.0346534661949,1.0,0.776942372322,-0.998161792755,0.0,7,0,10.0,10.0,10.0,10.0,0.0,0.0,0.0,0.0,,,,-0.142808735371,0.0882458537817,-0.0644536092877,0,0,0.0,0.0,4.48099994659,0,77,,,,,,,,,,,,,,,,,,,,,,,,,,,,,,,,,11.2975234985,11.3855485916,-1.0,-1.0,,,,,,,,,,,,,,,,,,,,,,,,,,,,,,,,,1.54998469353,-0.655385553837,0.0407922528684,0.0139562739059,0.00497593404725,1.69977545738,,,,,,,,,,,,,,,,,,,,,,,,,,,,,,,,,,,,,,,,,,,,,,,,,,,,,,,,,,,,,,,,,35703066,PX4FMU_V1,c4e2232078f2f28cbf97b8280f40fd988a5c2a75,test,305419904.0
0.0289513468742,-0.0171161405742,2.39377880096,0.0264879800379,0.0198829472065,0.00737367942929,0.101499013603,-0.219590529799,-9.66230297089,0.0,-0.00156632135622,2.32951593399,0.0,0.101499013603,-0.219590529799,-9.66230297089,0.0212125834078,0.0108219496906,0.0376581251621,-0.301116168499,-0.251797348261,0.497446626425,1010.64996338,21.6652584076,25.5299987793,0.0,0.0,-0.313694387674,0.166458845139,-0.223260343075,0.0,0.0,-0.250514000654,0.131427496672,-0.0228254962713,0.0,0.0,0.0,10,1,0,4.23812231332e+13,1.15720331669,,,,,,,,,,,,,,,,,,,,-0.0223256777972,0.00752612389624,-0.010779096745,0.0,0,2,0,0.791116058826,0,1,0.0,0.0025641026441,0.0,0.0371287129819,0.99816006422,0.776942372322,-0.998161792755,0.0,7,0,10.0,10.0,10.0,10.0,0.0,0.0,0.0,0.0,,,,-0.145248010755,0.0777762085199,-0.0644869655371,0,0,0.0,0.0,4.48099994659,0,77,,,,,,,,,,,,,,,,,,,,,,,,,,,,,,,,,11.3059043884,11.385389328,-1.0,-1.0,,,,,,,,,,,,,,,,,,,,,,,,,,,,,,,,,1.54998469353,-0.655385553837,0.0407922528684,0.0139562739059,0.00497593404725,1.69977545738,,,,,,,,,,,,,,,,,,,,,,,,,,,,,,,,,,,,,,,,,,,,,,,,,,,,,,,,,,,,,,,,,35723895,PX4FMU_V1,c4e2232078f2f28cbf97b8280f40fd988a5c2a75,test,305419904.0
0.0292264763266,-0.0170096065849,2.39493536949,0.00917353667319,0.00226401002146,0.00165214377921,-0.127171084285,-0.398563802242,-9.81741714478,0.0,-0.00156632135622,2.32951593399,0.0,-0.127171084285,-0.398563802242,-9.81741714478,0.00242588575929,0.0010523267556,-0.0314114354551,-0.266255736351,-0.256790757179,0.502787232399,1010.65997314,21.5818443298,25.5100002289,0.0,0.0,-0.313694387674,0.166458845139,-0.222228065133,0.0,0.0,-0.250514000654,0.131427496672,-0.0217963773757,0.0,0.0,0.0,10,1,0,4.34074686587e+13,1.15732312202,,,,,,,,,,,,,,,,,,,,-0.0202548187226,0.0097474316135,-0.0100944479927,0.0,0,2,0,0.791116058826,0,1,0.0,0.0025641026441,0.0,0.0371287129819,0.99816006422,0.776942372322,-0.998161792755,0.0,7,0,10.0,10.0,10.0,10.0,0.0,0.0,0.0,0.0,,,,-0.146632760763,0.0772442519665,-0.0656441748142,0,0,0.0,0.0,4.48099994659,0,77,,,,,,,,,,,,,,,,,,,,,,,,,,,,,,,,,11.2975234985,11.3852138519,-1.0,-1.0,,,,,,,,,,,,,,,,,,,,,,,,,,,,,,,,,1.54998469353,-0.655385553837,0.0407922528684,0.0139562739059,0.00497593404725,1.69977545738,,,,,,,,,,,,,,,,,,,,,,,,,,,,,,,,,,,,,,,,,,,,,,,,,,,,,,,,,,,,,,,,,35745207,PX4FMU_V1,c4e2232078f2f28cbf97b8280f40fd988a5c2a75,test,305419904.0
0.0291544254869,-0.0169100351632,2.39531302452,-0.00705913081765,-0.0157924555242,0.00093512237072,0.0720080286264,-0.19952788949,-9.68474388123,0.0,-0.00156632135622,2.32951593399,0.0,0.0720080286264,-0.19952788949,-9.68474388123,-0.0110264262185,-0.0282088443637,0.0307720657438,-0.304785698652,-0.211850091815,0.501897156239,1010.61999512,21.9155063629,25.5100002289,0.0,0.0,-0.313694387674,0.166458845139,-0.22379809618,0.0,0.0,-0.250514000654,0.131427496672,-0.021429952234,0.0,0.0,0.0,10,1,0,4.44705192018e+13,1.15744447708,,,,,,,,,,,,,,,,,,,,-0.0180981401354,0.0120300557464,-0.0100432448089,0.0,0,2,0,0.790142059326,0,1,0.0,0.0025641026441,0.0,0.0371287129819,1.0,0.776942372322,-0.998161792755,0.0,7,0,10.0,10.0,10.0,10.0,0.0,0.0,0.0,0.0,,,,-0.146275594831,0.0767464339733,-0.0660198405385,2,-7,-0.288800865412,1.05893659592,4.48099994659,55,77,,,,,,,,,,,,,,,,,,,,,,,,,,,,,,,,,11.3059043884,11.385055542,-1.0,-1.0,,,,,,,,,,,,,,,,,,,,,,,,,,,,,,,,,1.54998469353,-0.655385553837,0.0407922528684,0.0139562739059,0.00497593404725,1.69977545738,,,,,,,,,,,,,,,,,,,,,,,,,,,,,,,,,,,,,,,,,,,,,,,,,,,,,,,,,,,,,,,,,35767138,PX4FMU_V1,c4e2232078f2f28cbf97b8280f40fd988a5c2a75,test,305419904.0
0.0287796054035,-0.0174729209393,2.39561581612,-0.0217490307987,-0.0300665143877,0.0100650191307,-0.347263544798,-0.200436502695,-9.72726821899,0.0,-0.00156632135622,2.32951593399,0.0,-0.347263544798,-0.200436502695,-9.72726821899,-0.0169631503522,-0.0198981650174,-0.0120800584555,-0.299281418324,-0.230991497636,0.501897156239,1010.66998291,21.4984302521,25.5299987793,0.0,0.0,-0.313694387674,0.166458845139,-0.225209668279,0.0,0.0,-0.250514000654,0.131427496672,-0.0223481934518,0.0,0.0,0.0,10,1,0,4.55517604413e+13,1.15756475925,,,,,,,,,,,,,,,,,,,,-0.0159450452775,0.0142515972257,-0.0114589016885,0.0,0,2,0,0.790142059326,0,1,0.0,0.0025641026441,0.0,0.0371287129819,0.99816006422,0.779448628426,-0.998161792755,0.0,7,0,10.0,10.0,10.0,10.0,0.0,0.0,0.0,0.0,,,,-0.144403234124,0.0795611590147,-0.0663276538253,1,4,-0.168467178941,-0.567911088467,4.48099994659,63,77,,,,,,,,,,,,,,,,,,,,,,,,,,,,,,,,,11.2975234985,11.384967804,-1.0,-1.0,,,,,,,,,,,,,,,,,,,,,,,,,,,,,,,,,1.54998469353,-0.655385553837,0.0407922528684,0.0139562739059,0.00497593404725,1.69977545738,,,,,,,,,,,,,,,,,,,,,,,,,,,,,,,,,,,,,,,,,,,,,,,,,,,,,,,,,,,,,,,,,35788474,PX4FMU_V1,c4e2232078f2f28cbf97b8280f40fd988a5c2a75,test,305419904.0
0.0286136958748,-0.0175036787987,2.39457297325,0.000913467083592,-0.00328351045027,-0.0220774207264,0.0442212335765,0.0642942413688,-9.80691242218,0.0,0.0,2.32951593399,0.0,0.0442212335765,0.0642942413688,-9.80691242218,0.00754889659584,-0.000123457677546,-0.00178125652019,-0.264420986176,-0.264280885458,0.488545536995,1010.66998291,21.4984302521,25.5299987793,0.0,0.0,-0.313694387674,0.166458845139,-0.222454935312,0.0,0.0,-0.250514000654,0.131427496672,-0.0207067206502,0.0,0.0,0.0,10,1,0,4.66558522491e+13,1.15768492222,,,,,,,,,,,,,,,,,,,,-0.0192298348993,0.011662713252,-0.00941134244204,0.0,0,2,0,0.790142059326,0,1,0.0,-0.0,0.0,0.0346534661949,1.0,0.776942372322,-0.998161792755,0.0,7,0,10.0,10.0,10.0,10.0,0.0,0.0,0.0,0.0,,,,-0.143053859472,0.0875303298235,-0.0653074532747,0,0,0.0,0.0,4.48099994659,0,77,,,,,,,,,,,,,,,,,,,,,,,,,,,,,,,,,11.2975234985,11.3848009109,-1.0,-1.0,,,,,,,,,,,,,,,,,,,,,,,,,,,,,,,,,1.54998469353,-0.655385553837,0.0407922528684,0.0139562739059,0.00497593404725,1.69977545738,,,,,,,,,,,,,,,,,,,,,,,,,,,,,,,,,,,,,,,,,,,,,,,,,,,,,,,,,,,,,,,,,35809684,PX4FMU_V1,c4e2232078f2f28cbf97b8280f40fd988a5c2a75,test,305419904.0
0.0287600941956,-0.0175460036844,2.3948507309,0.00878401100636,0.00107714987826,0.00871360395104,-0.167044475675,-0.306076228619,-9.71601104736,0.0,-0.00156632135622,2.32951593399,0.0,-0.167044475675,-0.306076228619,-9.71601104736,0.00711041223258,0.00563781149685,-0.0171395689249,-0.248825505376,-0.28675121069,0.49833676219,1010.61999512,21.9155063629,25.5299987793,0.0,0.0,-0.313694387674,0.166458845139,-0.223576515913,0.0,0.0,-0.250514000654,0.131427496672,-0.0207508020103,0.0,0.0,0.0,10,1,0,4.72140134482e+13,1.15774452686,,,,,,,,,,,,,,,,,,,,-0.0199008621275,0.0102503784001,-0.0111415851861,0.0,0,2,0,0.790142059326,0,1,0.0,0.0025641026441,0.0,0.0346534661949,1.0,0.776942372322,-0.998161792755,0.0,7,0,10.0,10.0,10.0,10.0,0.0,0.0,0.0,0.0,,,,-0.144299551845,0.0799262225628,-0.0655636265874,0,0,0.0,0.0,4.48099994659,0,77,,,,,,,,,,,,,,,,,,,,,,,,,,,,,,,,,11.2891426086,11.3846178055,-1.0,-1.0,,,,,,,,,,,,,,,,,,,,,,,,,,,,,,,,,1.54998469353,-0.655385553837,0.0407922528684,0.0139562739059,0.00497593404725,1.69977545738,,,,,,,,,,,,,,,,,,,,,,,,,,,,,,,,,,,,,,,,,,,,,,,,,,,,,,,,,,,,,,,,,35831866,PX4FMU_V1,c4e2232078f2f28cbf97b8280f40fd988a5c2a75,test,305419904.0
0.0289725922048,-0.0171743538231,2.39656472206,0.0196223296225,0.0171401817352,-0.0182791724801,0.0803954750299,0.0555920302868,-9.74240112305,0.0,-0.00156632135622,2.32951593399,0.0,0.0803954750299,0.0555920302868,-9.74240112305,0.0207131188363,0.0144259221852,0.00170222180896,-0.279099047184,-0.234320417047,0.511688292027,1010.61999512,21.9155063629,25.5299987793,0.0,0.0,-0.313694387674,0.166458845139,-0.225859120488,0.0,0.0,-0.250514000654,0.131427496672,-0.0215999763459,0.0,0.0,0.0,10,1,0,4.83661552026e+13,1.15786528587,,,,,,,,,,,,,,,,,,,,-0.0214497689158,0.00792071409523,-0.00734919169918,0.0,0,2,0,0.790142059326,0,1,0.0,0.0025641026441,0.0,0.0371287129819,0.99816006422,0.776942372322,-0.998161792755,0.0,7,0,10.0,10.0,10.0,10.0,0.0,0.0,0.0,0.0,,,,-0.145375907421,0.0780687555671,-0.0672737807035,0,0,0.0,0.0,4.48099994659,0,77,,,,,,,,,,,,,,,,,,,,,,,,,,,,,,,,,11.3059043884,11.3844604492,-1.0,-1.0,,,,,,,,,,,,,,,,,,,,,,,,,,,,,,,,,1.54998469353,-0.655385553837,0.0407922528684,0.0139562739059,0.00497593404725,1.69977545738,,,,,,,,,,,,,,,,,,,,,,,,,,,,,,,,,,,,,,,,,,,,,,,,,,,,,,,,,,,,,,,,,35853259,PX4FMU_V1,c4e2232078f2f28cbf97b8280f40fd988a5c2a75,test,305419904.0
0.0292123127729,-0.0170828737319,2.39644217491,0.00522559834644,-0.00313473190181,0.0159376710653,-0.146234750748,-0.323987185955,-9.80918693542,0.0,-0.00156632135622,2.32951593399,0.0,-0.146234750748,-0.323987185955,-9.80918693542,0.00101261714008,-0.00322266342118,-0.000826463685371,-0.249742895365,-0.274267703295,0.486765325069,1010.63000488,21.8320903778,25.5299987793,0.0,0.0,-0.313694387674,0.166458845139,-0.226770848036,0.0,0.0,-0.250514000654,0.131427496672,-0.0213673394173,0.0,0.0,0.0,10,1,0,4.95388112978e+13,1.15798532963,,,,,,,,,,,,,,,,,,,,-0.0197338946164,0.0104970000684,-0.012463436462,0.0,0,2,0,0.790142059326,0,1,0.0,0.0025641026441,0.0,0.0371287129819,0.99816006422,0.776942372322,-0.998161792755,0.0,7,0,10.0,10.0,10.0,10.0,0.0,0.0,0.0,0.0,,,,-0.146573603153,0.0776114240289,-0.0671519041061,0,0,0.0,0.0,4.48099994659,0,77,,,,,,,,,,,,,,,,,,,,,,,,,,,,,,,,,11.3059043884,11.3842954636,-1.0,-1.0,,,,,,,,,,,,,,,,,,,,,,,,,,,,,,,,,1.54998469353,-0.655385553837,0.0407922528684,0.0139562739059,0.00497593404725,1.69977545738,,,,,,,,,,,,,,,,,,,,,,,,,,,,,,,,,,,,,,,,,,,,,,,,,,,,,,,,,,,,,,,,,35875602,PX4FMU_V1,c4e2232078f2f28cbf97b8280f40fd988a5c2a75,test,305419904.0
0.0291998889297,-0.0169729590416,2.39600563049,0.000157945905812,-0.00341879180633,-0.0292948484421,0.130284443498,-0.0453232452273,-9.69749641418,0.0,-0.00156632135622,2.32951593399,0.0,0.130284443498,-0.0453232452273,-9.69749641418,-0.0016250978224,-0.00977602694184,-0.0212391335517,-0.2855207026,-0.253461807966,0.510798215866,1010.64996338,21.6652584076,25.5299987793,0.0,0.0,-0.313694387674,0.166458845139,-0.227354094386,0.0,0.0,-0.250514000654,0.131427496672,-0.0210975296795,0.0,0.0,0.0,10,1,0,5.07428785357e+13,1.1581056118,,,,,,,,,,,,,,,,,,,,-0.0190666057169,0.0104624386877,-0.00561281107366,0.0,0,2,0,0.790142059326,0,1,0.0,0.0025641026441,0.0,0.0371287129819,0.99816006422,0.776942372322,-0.998161792755,0.0,7,0,10.0,10.0,10.0,10.0,0.0,0.0,0.0,0.0,,,,-0.14650824666,0.0770615115762,-0.0667135864496,0,0,0.0,0.0,4.48099994659,0,77,,,,,,,,,,,,,,,,,,,,,,,,,,,,,,,,,11.2975234985,11.3842086792,-1.0,-1.0,,,,,,,,,,,,,,,,,,,,,,,,,,,,,,,,,1.54998469353,-0.655385553837,0.0407922528684,0.0139562739059,0.00497593404725,1.69977545738,,,,,,,,,,,,,,,,,,,,,,,,,,,,,,,,,,,,,,,,,,,,,,,,,,,,,,,,,,,,,,,,,35896436,PX4FMU_V1,c4e2232078f2f28cbf97b8280f40fd988a5c2a75,test,305419904.0
0.0290119163692,-0.017290731892,2.396474123,-0.0118262637407,-0.0243979357183,0.0308079514652,-0.249925151467,-0.255310952663,-9.67661094666,0.0,-0.00156632135622,2.32951593399,0.0,-0.249925151467,-0.255310952663,-9.67661094666,-0.0128621850163,-0.0243128538132,0.0294625610113,-0.262586206198,-0.266777604818,0.493886202574,1010.59997559,22.0823402405,25.5299987793,0.0,0.0,-0.313694387674,0.166458845139,-0.227289453149,0.0,0.0,-0.250514000654,0.131427496672,-0.0210192613304,0.0,0.0,0.0,10,1,0,5.13573524603e+13,1.1581659317,,,,,,,,,,,,,,,,,,,,-0.0173868946731,0.0133963180706,-0.0146989934146,0.0,0,2,0,0.790142059326,0,1,0.0,0.0025641026441,0.0,0.0371287129819,0.99816006422,0.776942372322,-0.998161792755,0.0,7,0,10.0,10.0,10.0,10.0,0.0,0.0,0.0,0.0,,,,-0.145571604371,0.078650675714,-0.0671853348613,0,0,0.0,0.0,4.48099994659,0,77,,,,,,,,,,,,,,,,,,,,,,,,,,,,,,,,,11.2975234985,11.3840351105,-1.0,-1.0,,,,,,,,,,,,,,,,,,,,,,,,,,,,,,,,,1.54998469353,-0.655385553837,0.0407922528684,0.0139562739059,0.00497593404725,1.69977545738,,,,,,,,,,,,,,,,,,,,,,,,,,,,,,,,,,,,,,,,,,,,,,,,,,,,,,,,,,,,,,,,,35917654,PX4FMU_V1,c4e2232078f2f28cbf97b8280f40fd988a5c2a75,test,305419904.0
0.0287423878908,-0.0175028089434,2.39629173279,-0.00762408599257,-0.0113513907418,-0.0316717177629,0.124249562621,-0.0397548191249,-9.72660446167,0.0,-0.00156632135622,2.32951593399,0.0,0.124249562621,-0.0397548191249,-9.72660446167,-0.00405808910728,-0.0106101129204,-0.0240553934127,-0.312124758959,-0.253461807966,0.489435642958,1010.59997559,22.0823402405,25.5299987793,0.0,0.0,-0.313694387674,0.166458845139,-0.230844542384,0.0,0.0,-0.250514000654,0.131427496672,-0.0224916320294,0.0,0.0,0.0,10,1,0,5.26086056182e+13,1.1582865715,,,,,,,,,,,,,,,,,,,,-0.017757775262,0.0118381027132,-0.00529979728162,0.0,0,2,0,0.790142059326,0,1,0.0,0.0025641026441,0.0,0.0371287129819,0.99816006422,0.776942372322,-0.996323525906,0.0,7,0,10.0,10.0,10.0,10.0,0.0,0.0,0.0,0.0,,,,-0.14422236383,0.0797109380364,-0.0670036971569,0,0,0.0,0.0,4.48099994659,0,77,,,,,,,,,,,,,,,,,,,,,,,,,,,,,,,,,11.2975234985,11.3838701248,-1.0,-1.0,,,,,,,,,,,,,,,,,,,,,,,,,,,,,,,,,1.54998469353,-0.655385553837,0.0407922528684,0.0139562739059,0.00497593404725,1.69977545738,,,,,,,,,,,,,,,,,,,,,,,,,,,,,,,,,,,,,,,,,,,,,,,,,,,,,,,,,,,,,,,,,35939353,PX4FMU_V1,c4e2232078f2f28cbf97b8280f40fd988a5c2a75,test,305419904.0
0.0285940859467,-0.0177496168762,2.39699625969,-0.00483278045431,-0.0165310651064,0.0305205192417,-0.156391248107,-0.304911494255,-9.65998363495,0.0,0.0,2.32951593399,0.0,-0.156391248107,-0.304911494255,-9.65998363495,-0.00409346632659,-0.0155325178057,0.030157815665,-0.311207354069,-0.249300643802,0.496556520462,1010.61999512,21.9155063629,25.5399990082,0.0,0.0,-0.313694387674,0.166458845139,-0.232197135687,0.0,0.0,-0.250514000654,0.131427496672,-0.0223240051419,0.0,0.0,0.0,10,1,0,5.38871259464e+13,1.15840673447,,,,,,,,,,,,,,,,,,,,-0.0179559439421,0.0136878630146,-0.0147381722927,0.0,0,2,0,0.789194107056,0,1,0.0,-0.0,0.0,0.0371287129819,0.99816006422,0.776942372322,-0.998161792755,0.0,7,0,10.0,10.0,10.0,10.0,0.0,0.0,0.0,0.0,,,,-0.142955422401,0.088760189712,-0.0677339583635,1,18,-0.227585494518,-2.46765232086,4.48099994659,51,77,,,,,,,,,,,,,,,,,,,,,,,,,,,,,,,,,11.3059043884,11.3837137222,-1.0,-1.0,,,,,,,,,,,,,,,,,,,,,,,,,,,,,,,,,1.54998469353,-0.655385553837,0.0407922528684,0.0139562739059,0.00497593404725,1.69977545738,,,,,,,,,,,,,,,,,,,,,,,,,,,,,,,,,,,,,,,,,,,,,,,,,,,,,,,,,,,,,,,,,35960260,PX4FMU_V1,c4e2232078f2f28cbf97b8280f40fd988a5c2a75,test,305419904.0
0.0285322833806,-0.0177612118423,2.39682936668,0.00225240900181,0.0017843528185,-0.0288255233318,0.248221307993,-0.0302613042295,-9.55761909485,0.0,-0.00156632135622,2.32951593399,0.0,0.248221307993,-0.0302613042295,-9.55761909485,0.0056209997274,0.00464843492955,-0.0405203513801,-0.269925236702,-0.236817136407,0.496556520462,1010.63000488,21.8320903778,25.5399990082,0.0,0.0,-0.313694387674,0.166458845139,-0.233888745308,0.0,0.0,-0.250514000654,0.131427496672,-0.0229538045824,0.0,0.0,0.0,10,1,0,5.51896209162e+13,1.15852642059,,,,,,,,,,,,,,,,,,,,-0.0189056582749,0.0102984588593,-0.00580769777298,0.0,0,2,0,0.789194107056,0,1,0.0,0.0025641026441,0.0,0.0371287129819,0.99816006422,0.776942372322,-0.996323525906,0.0,7,0,10.0,10.0,10.0,10.0,0.0,0.0,0.0,0.0,,,,-0.14317573607,0.0810032710433,-0.0675435066223,5,-31,-0.758102357388,4.29178762436,4.48099994659,0,77,,,,,,,,,,,,,,,,,,,,,,,,,,,,,,,,,11.2975234985,11.3836278915,-1.0,-1.0,,,,,,,,,,,,,,,,,,,,,,,,,,,,,,,,,1.54998469353,-0.655385553837,0.0407922528684,0.0139562739059,0.00497593404725,1.69977545738,,,,,,,,,,,,,,,,,,,,,,,,,,,,,,,,,,,,,,,,,,,,,,,,,,,,,,,,,,,,,,,,,35981284,PX4FMU_V1,c4e2232078f2f28cbf97b8280f40fd988a5c2a75,test,305419904.0
0.0285716876388,-0.0177572071552,2.39723563194,0.00691932346672,-0.00526652392,0.0275997426361,-0.0637841597199,-0.303646832705,-9.71231651306,0.0,-0.00156632135622,2.32951593399,0.0,-0.0637841597199,-0.303646832705,-9.71231651306,0.00571406958625,-0.00674859620631,0.0359898768365,-0.241486474872,-0.225165829062,0.509018003941,1010.65997314,21.5818443298,25.5399990082,0.0,0.0,-0.313694387674,0.166458845139,-0.233568221331,0.0,0.0,-0.250514000654,0.131427496672,-0.0225218050182,0.0,0.0,0.0,10,1,0,5.65259093934e+13,1.15864646435,,,,,,,,,,,,,,,,,,,,-0.0195383857936,0.0112125026062,-0.0143324518576,0.0,0,2,0,0.789194107056,0,1,0.0,0.0025641026441,0.0,0.0371287129819,0.99816006422,0.776942372322,-0.998161792755,0.0,7,0,10.0,10.0,10.0,10.0,0.0,0.0,0.0,0.0,,,,-0.143375962973,0.0809834972024,-0.0679499283433,0,0,0.0,0.0,4.48099994659,0,77,,,,,,,,,,,,,,,,,,,,,,,,,,,,,,,,,11.3059043884,11.3834733963,-1.0,-1.0,,,,,,,,,,,,,,,,,,,,,,,,,,,,,,,,,1.54998469353,-0.655385553837,0.0407922528684,0.0139562739059,0.00497593404725,1.69977545738,,,,,,,,,,,,,,,,,,,,,,,,,,,,,,,,,,,,,,,,,,,,,,,,,,,,,,,,,,,,,,,,,36005167,PX4FMU_V1,c4e2232078f2f28cbf97b8280f40fd988a5c2a75,test,305419904.0
0.0287484042346,-0.0175412986428,2.39694070816,0.013749325648,0.0118920300156,-0.0318811014295,0.186505690217,-0.0627354308963,-9.69111347198,0.0,-0.00156632135622,2.32951593399,0.0,0.186505690217,-0.0627354308963,-9.69111347198,0.0148117505014,0.0107838660479,-0.0400776006281,-0.248825505376,-0.228494778275,0.507237792015,1010.57995605,22.2491779327,25.5399990082,0.0,0.0,-0.313694387674,0.166458845139,-0.238448768854,0.0,0.0,-0.250514000654,0.131427496672,-0.0242065601051,0.0,0.0,0.0,10,1,0,5.79059654328e+13,1.15876734257,,,,,,,,,,,,,,,,,,,,-0.0205408800393,0.00884152296931,-0.00536585785449,0.0,0,2,0,0.789194107056,0,1,0.0,0.0025641026441,0.0,0.0371287129819,0.99816006422,0.776942372322,-0.998161792755,0.0,7,0,10.0,10.0,10.0,10.0,0.0,0.0,0.0,0.0,,,,-0.144257441163,0.0799037441611,-0.0676534846425,0,0,0.0,0.0,4.48099994659,0,77,,,,,,,,,,,,,,,,,,,,,,,,,,,,,,,,,11.2975234985,11.383310318,-1.0,-1.0,,,,,,,,,,,,,,,,,,,,,,,,,,,,,,,,,1.54998469353,-0.655385553837,0.0407922528684,0.0139562739059,0.00497593404725,1.69977545738,,,,,,,,,,,,,,,,,,,,,,,,,,,,,,,,,,,,,,,,,,,,,,,,,,,,,,,,,,,,,,,,,36028079,PX4FMU_V1,c4e2232078f2f28cbf97b8280f40fd988a5c2a75,test,305419904.0
0.0288767553866,-0.0174279101193,2.39767813683,0.00736041832715,-0.00418591778725,0.0287867411971,-0.0339807868004,-0.277897357941,-9.60803604126,0.0,-0.00156632135622,2.32951593399,0.0,-0.0339807868004,-0.277897357941,-9.60803604126,0.00278705335222,-0.0111514544114,0.0447934791446,-0.25157764554,-0.221836894751,0.507237792015,1010.64996338,21.6652584076,25.5399990082,0.0,0.0,-0.313694387674,0.166458845139,-0.241555318236,0.0,0.0,-0.250514000654,0.131427496672,-0.0264291260391,0.0,0.0,0.0,10,1,0,5.86039102013e+13,1.15882730484,,,,,,,,,,,,,,,,,,,,-0.0197945162654,0.0108580095693,-0.0145765477791,0.0,0,2,0,0.789194107056,0,1,0.0,0.0025641026441,0.0,0.0371287129819,0.99816006422,0.776942372322,-0.998161792755,0.0,7,0,10.0,10.0,10.0,10.0,0.0,0.0,0.0,0.0,,,,-0.144905105233,0.0793372392654,-0.0683902427554,0,0,0.0,0.0,4.48099994659,0,77,,,,,,,,,,,,,,,,,,,,,,,,,,,,,,,,,11.3059043884,11.3831472397,-1.0,-1.0,,,,,,,,,,,,,,,,,,,,,,,,,,,,,,,,,1.54998469353,-0.655385553837,0.0407922528684,0.0139562739059,0.00497593404725,1.69977545738,,,,,,,,,,,,,,,,,,,,,,,,,,,,,,,,,,,,,,,,,,,,,,,,,,,,,,,,,,,,,,,,,36048663,PX4FMU_V1,c4e2232078f2f28cbf97b8280f40fd988a5c2a75,test,305419904.0
0.0288743041456,-0.0174553524703,2.39780187607,-0.00127144146245,-0.000961505691521,-0.0222374387085,0.0813578888774,-0.185676917434,-9.52638721466,0.0,0.0,2.32951593399,0.0,0.0813578888774,-0.185676917434,-9.52638721466,0.000216640561121,0.00203275470994,-0.0468098297715,-0.31579425931,-0.251797348261,0.500116884708,1010.63995361,21.7486743927,25.5399990082,0.0,0.0,-0.313694387674,0.166458845139,-0.242081642151,0.0,0.0,-0.250514000654,0.131427496672,-0.0259733423591,0.0,0.0,0.0,10,1,0,6.00287907676e+13,1.15894770622,,,,,,,,,,,,,,,,,,,,-0.0186011046171,0.0114725520834,-0.00694506941363,0.0,0,2,0,0.789194107056,0,1,0.0,-0.0,0.0,0.0346534661949,1.0,0.776942372322,-0.998161792755,0.0,7,0,10.0,10.0,10.0,10.0,0.0,0.0,0.0,0.0,,,,-0.144356861711,0.0872889012098,-0.0685378983617,0,0,0.0,0.0,4.48099994659,0,77,,,,,,,,,,,,,,,,,,,,,,,,,,,,,,,,,11.3059043884,11.3829841614,-1.0,-1.0,,,,,,,,,,,,,,,,,,,,,,,,,,,,,,,,,1.54998469353,-0.655385553837,0.0407922528684,0.0139562739059,0.00497593404725,1.69977545738,,,,,,,,,,,,,,,,,,,,,,,,,,,,,,,,,,,,,,,,,,,,,,,,,,,,,,,,,,,,,,,,,36070040,PX4FMU_V1,c4e2232078f2f28cbf97b8280f40fd988a5c2a75,test,305419904.0
0.0287573598325,-0.017539260909,2.39701008797,-0.00236652232707,-0.0136689608917,0.0254003386945,0.00250251381658,-0.204427167773,-9.63089847565,0.0,0.0,2.32951593399,0.0,0.00250251381658,-0.204427167773,-9.63089847565,-0.00182187149767,-0.0143498731777,0.0465820655227,-0.295611917973,-0.275932163,0.486765325069,1010.61999512,21.9155063629,25.5399990082,0.0,0.0,-0.313694387674,0.166458845139,-0.243565604091,0.0,0.0,-0.250514000654,0.131427496672,-0.0261422116309,0.0,0.0,0.0,10,1,0,6.14830482391e+13,1.15906763077,,,,,,,,,,,,,,,,,,,,-0.018382716924,0.0131790535524,-0.0139719964936,0.0,0,2,0,0.789194107056,0,1,0.0,-0.0,0.0,0.0346534661949,1.0,0.776942372322,-0.998161792755,0.0,7,0,10.0,10.0,10.0,10.0,0.0,0.0,0.0,0.0,,,,-0.143772050738,0.087708376348,-0.067746296525,0,0,0.0,0.0,4.48099994659,0,77,,,,,,,,,,,,,,,,,,,,,,,,,,,,,,,,,11.2975234985,11.3828125,-1.0,-1.0,,,,,,,,,,,,,,,,,,,,,,,,,,,,,,,,,1.54998469353,-0.655385553837,0.0407922528684,0.0139562739059,0.00497593404725,1.69977545738,,,,,,,,,,,,,,,,,,,,,,,,,,,,,,,,,,,,,,,,,,,,,,,,,,,,,,,,,,,,,,,,,36091710,PX4FMU_V1,c4e2232078f2f28cbf97b8280f40fd988a5c2a75,test,305419904.0
0.0287448707968,-0.0176194570959,2.39668536186,0.00115956924856,2.41435463977e-05,-0.0179482083768,0.0359672233462,-0.0441544353962,-9.59319114685,0.0,0.0,2.32951593399,0.0,0.0359672233462,-0.0441544353962,-9.59319114685,0.00517979776487,0.00744929444045,-0.0446541383862,-0.242403849959,-0.270938754082,0.49032574892,1010.66998291,21.4984302521,25.5499992371,0.0,0.0,-0.313694387674,0.166458845139,-0.24320051074,0.0,0.0,-0.250514000654,0.131427496672,-0.0255750212818,0.0,0.0,0.0,10,1,0,6.29777346068e+13,1.15918815136,,,,,,,,,,,,,,,,,,,,-0.0188329797238,0.0114510888234,-0.00742118433118,0.0,0,2,0,0.789194107056,0,1,0.0,-0.0,0.0,0.0346534661949,1.0,0.776942372322,-0.998161792755,0.0,7,0,10.0,10.0,10.0,10.0,0.0,0.0,0.0,0.0,,,,-0.143709510565,0.0881094411016,-0.0674227699637,0,0,0.0,0.0,4.48099994659,0,77,,,,,,,,,,,,,,,,,,,,,,,,,,,,,,,,,11.2891426086,11.3827190399,-1.0,-1.0,,,,,,,,,,,,,,,,,,,,,,,,,,,,,,,,,1.54998469353,-0.655385553837,0.0407922528684,0.0139562739059,0.00497593404725,1.69977545738,,,,,,,,,,,,,,,,,,,,,,,,,,,,,,,,,,,,,,,,,,,,,,,,,,,,,,,,,,,,,,,,,36112466,PX4FMU_V1,c4e2232078f2f28cbf97b8280f40fd988a5c2a75,test,305419904.0
0.0287783704698,-0.0174909438938,2.3968808651,0.00766311539337,-0.00133706594352,0.00615925248712,0.102095834911,-0.189380079508,-9.53161907196,0.0,-0.00156632135622,2.32951593399,0.0,0.102095834911,-0.189380079508,-9.53161907196,0.00769065506756,-0.00572886737064,0.0337792225182,-0.245155975223,-0.26261639595,0.489435642958,1010.64996338,21.6652584076,25.5499992371,0.0,0.0,-0.313694387674,0.166458845139,-0.242262586951,0.0,0.0,-0.250514000654,0.131427496672,-0.0256800297648,0.0,0.0,0.0,10,1,0,6.3734588375e+13,1.15924799442,,,,,,,,,,,,,,,,,,,,-0.019769096747,0.0105285719037,-0.0110628297552,0.0,0,2,0,0.789194107056,0,1,0.0,0.0025641026441,0.0,0.0371287129819,0.99816006422,0.776942372322,-0.998161792755,0.0,7,0,10.0,10.0,10.0,10.0,0.0,0.0,0.0,0.0,,,,-0.144406870008,0.0796519517899,-0.0675929412246,0,0,0.0,0.0,4.48099994659,0,77,,,,,,,,,,,,,,,,,,,,,,,,,,,,,,,,,11.2975234985,11.3825492859,-1.0,-1.0,,,,,,,,,,,,,,,,,,,,,,,,,,,,,,,,,1.54998469353,-0.655385553837,0.0407922528684,0.0139562739059,0.00497593404725,1.69977545738,,,,,,,,,,,,,,,,,,,,,,,,,,,,,,,,,,,,,,,,,,,,,,,,,,,,,,,,,,,,,,,,,36133655,PX4FMU_V1,c4e2232078f2f28cbf97b8280f40fd988a5c2a75,test,305419904.0
0.0288560632616,-0.017502868548,2.39803576469,0.00174611166585,0.000847334857099,-0.00832740683109,-0.00961989164352,-0.130738377571,-9.48423290253,0.0,0.0,2.32951593399,0.0,-0.00961989164352,-0.130738377571,-9.48423290253,0.00148783088662,0.00408633006737,-0.0353084616363,-0.26166883111,-0.255958527327,0.492105990648,1010.64996338,21.6652584076,25.5399990082,0.0,0.0,-0.313694387674,0.166458845139,-0.241385117173,0.0,0.0,-0.250514000654,0.131427496672,-0.0255028996617,0.0,0.0,0.0,10,1,0,6.52830960517e+13,1.15936815739,,,,,,,,,,,,,,,,,,,,-0.0189815200865,0.0112682888284,-0.00906673818827,0.0,0,2,0,0.789194107056,0,1,0.0,-0.0,0.0,0.0346534661949,1.0,0.776942372322,-0.998161792755,0.0,7,0,10.0,10.0,10.0,10.0,0.0,0.0,0.0,0.0,,,,-0.144265577197,0.0875264778733,-0.0687723234296,0,0,0.0,0.0,4.48099994659,0,77,,,,,,,,,,,,,,,,,,,,,,,,,,,,,,,,,11.2891426086,11.3823709488,-1.0,-1.0,,,,,,,,,,,,,,,,,,,,,,,,,,,,,,,,,1.54998469353,-0.655385553837,0.0407922528684,0.0139562739059,0.00497593404725,1.69977545738,,,,,,,,,,,,,,,,,,,,,,,,,,,,,,,,,,,,,,,,,,,,,,,,,,,,,,,,,,,,,,,,,36156304,PX4FMU_V1,c4e2232078f2f28cbf97b8280f40fd988a5c2a75,test,305419904.0
0.0287832263857,-0.0174904316664,2.39849090576,-0.00135545653757,-0.0105593241751,-0.00469126738608,0.110448792577,-0.217926010489,-9.6932888031,0.0,0.0,2.32951593399,0.0,0.110448792577,-0.217926010489,-9.6932888031,-0.0027198405005,-0.0135471271351,0.0261393040419,-0.313959479332,-0.245139479637,0.507237792015,1010.59997559,22.0823402405,25.5399990082,0.0,0.0,-0.313694387674,0.166458845139,-0.242218524218,0.0,0.0,-0.250514000654,0.131427496672,-0.0249881669879,0.0,0.0,0.0,10,1,0,6.68841541632e+13,1.15948951244,,,,,,,,,,,,,,,,,,,,-0.0185309834778,0.0127430623397,-0.00968030840158,0.0,0,2,0,0.788246810436,0,1,0.0,-0.0,0.0,0.0346534661949,1.0,0.776942372322,-0.998161792755,0.0,7,0,10.0,10.0,10.0,10.0,0.0,0.0,0.0,0.0,,,,-0.143901482224,0.087464235723,-0.0692266523838,0,0,0.0,0.0,4.48099994659,0,77,,,,,,,,,,,,,,,,,,,,,,,,,,,,,,,,,11.3059043884,11.3822011948,-1.0,-1.0,,,,,,,,,,,,,,,,,,,,,,,,,,,,,,,,,1.54998469353,-0.655385553837,0.0407922528684,0.0139562739059,0.00497593404725,1.69977545738,,,,,,,,,,,,,,,,,,,,,,,,,,,,,,,,,,,,,,,,,,,,,,,,,,,,,,,,,,,,,,,,,36176747,PX4FMU_V1,c4e2232078f2f28cbf97b8280f40fd988a5c2a75,test,305419904.0
0.0287029743195,-0.0177153870463,2.39932775497,-0.00468161236495,-0.0112349223346,0.0133444331586,-0.159376472235,-0.275357544422,-9.80148601532,0.0,-0.00156632135622,2.32951593399,0.0,-0.159376472235,-0.275357544422,-9.80148601532,-0.00464223790914,-0.00551557308063,-0.0138989333063,-0.255247175694,-0.268442034721,0.497446626425,1010.58996582,22.1657581329,25.5399990082,0.0,0.0,-0.313694387674,0.166458845139,-0.247011482716,0.0,0.0,-0.250514000654,0.131427496672,-0.026891598478,0.0,0.0,0.0,10,1,0,6.85029835407e+13,1.15960943699,,,,,,,,,,,,,,,,,,,,-0.0181177183986,0.0119613623247,-0.0125080309808,0.0,0,2,0,0.788246810436,0,1,0.0,0.0025641026441,0.0,0.0346534661949,1.0,0.776942372322,-0.998161792755,0.0,7,0,10.0,10.0,10.0,10.0,0.0,0.0,0.0,0.0,,,,-0.144048690796,0.0807755589485,-0.0700424388051,-8,-24,1.08855724335,3.36707949638,4.48099994659,0,77,,,,,,,,,,,,,,,,,,,,,,,,,,,,,,,,,11.2891426086,11.3821077347,-1.0,-1.0,,,,,,,,,,,,,,,,,,,,,,,,,,,,,,,,,1.54998469353,-0.655385553837,0.0407922528684,0.0139562739059,0.00497593404725,1.69977545738,,,,,,,,,,,,,,,,,,,,,,,,,,,,,,,,,,,,,,,,,,,,,,,,,,,,,,,,,,,,,,,,,36198196,PX4FMU_V1,c4e2232078f2f28cbf97b8280f40fd988a5c2a75,test,305419904.0
0.0286085344851,-0.0176907349378,2.40050601959,0.00476361904293,-0.00514531787485,-0.0068509913981,0.0425814799964,-0.183182358742,-9.76763725281,0.0,-0.00156632135622,2.32951593399,0.0,0.0425814799964,-0.183182358742,-9.76763725281,0.00882022455335,-0.00535283330828,0.0251637510955,-0.311207354069,-0.235984891653,0.50545758009,1010.61999512,21.9155063629,25.5399990082,0.0,0.0,-0.313694387674,0.166458845139,-0.248128145933,0.0,0.0,-0.250514000654,0.131427496672,-0.0267814733088,0.0,0.0,0.0,10,1,0,7.01626025247e+13,1.15972936153,,,,,,,,,,,,,,,,,,,,-0.0192854199558,0.0111537631601,-0.00965531356633,0.0,0,2,0,0.788246810436,0,1,0.0,0.0025641026441,0.0,0.0346534661949,1.0,0.776942372322,-0.998161792755,0.0,7,0,10.0,10.0,10.0,10.0,0.0,0.0,0.0,0.0,,,,-0.143585771322,0.0806528627872,-0.0712197497487,0,0,0.0,0.0,4.48099994659,0,77,,,,,,,,,,,,,,,,,,,,,,,,,,,,,,,,,11.2975234985,11.3819379807,-1.0,-1.0,,,,,,,,,,,,,,,,,,,,,,,,,,,,,,,,,1.54998469353,-0.655385553837,0.0407922528684,0.0139562739059,0.00497593404725,1.69977545738,,,,,,,,,,,,,,,,,,,,,,,,,,,,,,,,,,,,,,,,,,,,,,,,,,,,,,,,,,,,,,,,,36220247,PX4FMU_V1,c4e2232078f2f28cbf97b8280f40fd988a5c2a75,test,305419904.0
0.028740638867,-0.0176604073495,2.40011024475,0.00872467737645,0.00521302036941,0.0138740297407,-0.169193685055,-0.319077849388,-9.71354961395,0.0,0.0,2.32951593399,0.0,-0.169193685055,-0.319077849388,-9.71354961395,0.00875247642398,0.00934627745301,-0.0129441507161,-0.259834051132,-0.230159252882,0.491215854883,1010.58996582,22.1657581329,25.5399990082,0.0,0.0,-0.313694387674,0.166458845139,-0.249662697315,0.0,0.0,-0.250514000654,0.131427496672,-0.0270472597331,0.0,0.0,0.0,10,1,0,7.10083503718e+13,1.15978932381,,,,,,,,,,,,,,,,,,,,-0.0198136847466,0.0108031537384,-0.0127083314583,0.0,0,2,0,0.788246810436,0,1,0.0,-0.0,0.0,0.0346534661949,1.0,0.776942372322,-0.998161792755,0.0,7,0,10.0,10.0,10.0,10.0,0.0,0.0,0.0,0.0,,,,-0.143688291311,0.0883142054081,-0.0708481743932,0,0,0.0,0.0,4.48099994659,0,77,,,,,,,,,,,,,,,,,,,,,,,,,,,,,,,,,11.3059043884,11.3817853928,-1.0,-1.0,,,,,,,,,,,,,,,,,,,,,,,,,,,,,,,,,1.54998469353,-0.655385553837,0.0407922528684,0.0139562739059,0.00497593404725,1.69977545738,,,,,,,,,,,,,,,,,,,,,,,,,,,,,,,,,,,,,,,,,,,,,,,,,,,,,,,,,,,,,,,,,36241236,PX4FMU_V1,c4e2232078f2f28cbf97b8280f40fd988a5c2a75,test,305419904.0
0.0288139935583,-0.0174567513168,2.399518013,0.00889361370355,0.00250085629523,-0.0227492675185,-0.0851716026664,-0.0326009616256,-9.76251220703,0.0,-0.00156632135622,2.32951593399,0.0,-0.0851716026664,-0.0326009616256,-9.76251220703,0.00913929007947,-0.00360316992737,-0.00640885531902,-0.266255736351,-0.245139479637,0.495666414499,1010.65997314,21.5818443298,25.5499992371,0.0,0.0,-0.313694387674,0.166458845139,-0.254804551601,0.0,0.0,-0.250514000654,0.131427496672,-0.0283620394766,0.0,0.0,0.0,10,1,0,7.27367139983e+13,1.1599098444,,,,,,,,,,,,,,,,,,,,-0.019954899326,0.0100075993687,-0.00712209893391,0.0,0,2,0,0.788246810436,0,1,0.0,0.0025641026441,0.0,0.0371287129819,0.99816006422,0.776942372322,-0.998161792755,0.0,7,0,10.0,10.0,10.0,10.0,0.0,0.0,0.0,0.0,,,,-0.144605621696,0.0794823914766,-0.0702299252152,0,0,0.0,0.0,4.48099994659,0,77,,,,,,,,,,,,,,,,,,,,,,,,,,,,,,,,,11.3059043884,11.3816337585,-1.0,-1.0,,,,,,,,,,,,,,,,,,,,,,,,,,,,,,,,,1.54998469353,-0.655385553837,0.0407922528684,0.0139562739059,0.00497593404725,1.69977545738,,,,,,,,,,,,,,,,,,,,,,,,,,,,,,,,,,,,,,,,,,,,,,,,,,,,,,,,,,,,,,,,,36262597,PX4FMU_V1,c4e2232078f2f28cbf97b8280f40fd988a5c2a75,test,305419904.0
0.0289920754731,-0.0174170713872,2.40122628212,0.00684019550681,0.00107795663644,0.0193039420992,-0.195083603263,-0.342847079039,-9.70164680481,0.0,-0.00156632135622,2.32951593399,0.0,-0.195083603263,-0.342847079039,-9.70164680481,0.00478042429313,0.00298873195425,-0.00208523822948,-0.290107637644,-0.20269548893,0.501007020473,1010.61999512,21.9155063629,25.5499992371,0.0,0.0,-0.313694387674,0.166458845139,-0.254859685898,0.0,0.0,-0.250514000654,0.131427496672,-0.0277516245842,0.0,0.0,0.0,10,1,0,7.45075827016e+13,1.16003036499,,,,,,,,,,,,,,,,,,,,-0.0198054481298,0.0101669272408,-0.0136864501983,0.0,0,2,0,0.788246810436,0,1,0.0,0.0025641026441,0.0,0.0371287129819,0.99816006422,0.776942372322,-0.998161792755,0.0,7,0,10.0,10.0,10.0,10.0,0.0,0.0,0.0,0.0,,,,-0.145509406924,0.0792850926518,-0.0719390586019,0,0,0.0,0.0,4.48099994659,0,77,,,,,,,,,,,,,,,,,,,,,,,,,,,,,,,,,11.3059043884,11.3814744949,-1.0,-1.0,,,,,,,,,,,,,,,,,,,,,,,,,,,,,,,,,1.54998469353,-0.655385553837,0.0407922528684,0.0139562739059,0.00497593404725,1.69977545738,,,,,,,,,,,,,,,,,,,,,,,,,,,,,,,,,,,,,,,,,,,,,,,,,,,,,,,,,,,,,,,,,36284542,PX4FMU_V1,c4e2232078f2f28cbf97b8280f40fd988a5c2a75,test,305419904.0
0.0289101395756,-0.0173655487597,2.39983057976,-0.00277483952232,-0.00839171279222,-0.0295155700296,-0.0245972909033,-0.0150536503643,-9.60675144196,0.0,-0.00156632135622,2.32951593399,0.0,-0.0245972909033,-0.0150536503643,-9.60675144196,-0.00237913290039,-0.0143395923078,-0.0140708619729,-0.291942358017,-0.269274264574,0.492996096611,1010.60998535,21.998922348,25.5499992371,0.0,0.0,-0.313694387674,0.166458845139,-0.257741481066,0.0,0.0,-0.250514000654,0.131427496672,-0.0282379463315,0.0,0.0,0.0,10,1,0,7.63125259305e+13,1.16015005112,,,,,,,,,,,,,,,,,,,,-0.0185008291155,0.0113643789664,-0.00615396210924,0.0,0,2,0,0.788246810436,0,1,0.0,0.0025641026441,0.0,0.0371287129819,0.99816006422,0.776942372322,-0.998161792755,0.0,7,0,10.0,10.0,10.0,10.0,0.0,0.0,0.0,0.0,,,,-0.145088911057,0.0790265873075,-0.070541985333,2,7,-0.285045921803,-0.811082482338,4.4279999733,0,77,,,,,,,,,,,,,,,,,,,,,,,,,,,,,,,,,11.2975234985,11.3813905716,-1.0,-1.0,,,,,,,,,,,,,,,,,,,,,,,,,,,,,,,,,1.54998469353,-0.655385553837,0.0407922528684,0.0139562739059,0.00497593404725,1.69977545738,,,,,,,,,,,,,,,,,,,,,,,,,,,,,,,,,,,,,,,,,,,,,,,,,,,,,,,,,,,,,,,,,36305908,PX4FMU_V1,c4e2232078f2f28cbf97b8280f40fd988a5c2a75,test,305419904.0
0.0288449991494,-0.0175728201866,2.40081048012,-0.00276724691503,-0.00751590356231,0.0235459841788,-0.22913312912,-0.33577132225,-9.59316635132,0.0,0.0,2.32951593399,0.0,-0.22913312912,-0.33577132225,-9.59316635132,-0.00131666997913,-0.000962857098784,0.006093502976,-0.267173081636,-0.211850091815,0.496556520462,1010.61999512,21.9155063629,25.5499992371,0.0,0.0,-0.313694387674,0.166458845139,-0.259932845831,0.0,0.0,-0.250514000654,0.131427496672,-0.0287244021893,0.0,0.0,0.0,10,1,0,7.81632877363e+13,1.16026997566,,,,,,,,,,,,,,,,,,,,-0.0183875784278,0.0124009847641,-0.0142641002312,0.0,0,2,0,0.788246810436,0,1,0.0,-0.0,0.0,0.0346534661949,1.0,0.776942372322,-0.998161792755,0.0,7,0,10.0,10.0,10.0,10.0,0.0,0.0,0.0,0.0,,,,-0.144210159779,0.0878762900829,-0.0715480074286,15,3,-1.66421985626,-0.339638739824,4.4279999733,63,77,,,,,,,,,,,,,,,,,,,,,,,,,,,,,,,,,11.2891426086,11.3812141418,-1.0,-1.0,,,,,,,,,,,,,,,,,,,,,,,,,,,,,,,,,1.54998469353,-0.655385553837,0.0407922528684,0.0139562739059,0.00497593404725,1.69977545738,,,,,,,,,,,,,,,,,,,,,,,,,,,,,,,,,,,,,,,,,,,,,,,,,,,,,,,,,,,,,,,,,36328351,PX4FMU_V1,c4e2232078f2f28cbf97b8280f40fd988a5c2a75,test,305419904.0
0.0287611205131,-0.0175709240139,2.40067338943,-0.00164161541034,-0.0060877292417,-0.0291462391615,-0.110063925385,-0.082413315773,-9.70940494537,0.0,0.0,2.32951593399,0.0,-0.110063925385,-0.082413315773,-9.70940494537,-0.00123409891967,-0.00904211588204,-0.0237118005753,-0.282768547535,-0.270938754082,0.492996096611,1010.60998535,21.998922348,25.5499992371,0.0,0.0,-0.313694387674,0.166458845139,-0.261126935482,0.0,0.0,-0.250514000654,0.131427496672,-0.0286635365337,0.0,0.0,0.0,10,1,0,7.91255617372e+13,1.16033124924,,,,,,,,,,,,,,,,,,,,-0.0184793900698,0.0122140776366,-0.00633958121762,0.0,0,2,0,0.788246810436,0,1,0.0,-0.0,0.0,0.0346534661949,1.0,0.776942372322,-0.998161792755,0.0,7,0,10.0,10.0,10.0,10.0,0.0,0.0,0.0,0.0,,,,-0.143790781498,0.0878667160869,-0.071410112083,0,0,0.0,0.0,4.4279999733,0,77,,,,,,,,,,,,,,,,,,,,,,,,,,,,,,,,,11.2975234985,11.3810462952,-1.0,-1.0,,,,,,,,,,,,,,,,,,,,,,,,,,,,,,,,,1.54998469353,-0.655385553837,0.0407922528684,0.0139562739059,0.00497593404725,1.69977545738,,,,,,,,,,,,,,,,,,,,,,,,,,,,,,,,,,,,,,,,,,,,,,,,,,,,,,,,,,,,,,,,,36349268,PX4FMU_V1,c4e2232078f2f28cbf97b8280f40fd988a5c2a75,test,305419904.0
0.0288117770106,-0.0176155716181,2.40142178535,0.00534242857248,-0.00570623716339,0.0272880718112,-0.188093021512,-0.376730263233,-9.75858020782,0.0,0.0,2.32951593399,0.0,-0.188093021512,-0.376730263233,-9.75858020782,0.00376140372828,-0.00338645721786,0.0343113057315,-0.2855207026,-0.233488172293,0.507237792015,1010.63995361,21.7486743927,25.5499992371,0.0,0.0,-0.313694387674,0.166458845139,-0.263628959656,0.0,0.0,-0.250514000654,0.131427496672,-0.0298495497555,0.0,0.0,0.0,10,1,0,8.10384915169e+13,1.16045105457,,,,,,,,,,,,,,,,,,,,-0.0194202344865,0.0121935158968,-0.0149171706289,0.0,0,2,0,0.787252426147,0,1,0.0,-0.0,0.0,0.0346534661949,1.0,0.776942372322,-0.998161792755,0.0,7,0,10.0,10.0,10.0,10.0,0.0,0.0,0.0,0.0,,,,-0.14404399693,0.0880900472403,-0.072159729898,0,0,0.0,0.0,4.4279999733,0,77,,,,,,,,,,,,,,,,,,,,,,,,,,,,,,,,,11.2975234985,11.3808794022,-1.0,-1.0,,,,,,,,,,,,,,,,,,,,,,,,,,,,,,,,,1.54998469353,-0.655385553837,0.0407922528684,0.0139562739059,0.00497593404725,1.69977545738,,,,,,,,,,,,,,,,,,,,,,,,,,,,,,,,,,,,,,,,,,,,,,,,,,,,,,,,,,,,,,,,,36370391,PX4FMU_V1,c4e2232078f2f28cbf97b8280f40fd988a5c2a75,test,305419904.0
0.0287120509893,-0.0176624450833,2.40172338486,-0.00516827078536,-0.0112317288294,-0.0295237954706,0.0952816009521,-0.0594721920788,-9.70400619507,0.0,-0.00156632135622,2.32951593399,0.0,0.0952816009521,-0.0594721920788,-9.70400619507,-0.00747140869498,-0.0186257306486,-0.0365822389722,-0.26075142622,-0.206024438143,0.487655431032,1010.60998535,21.998922348,25.5499992371,0.0,0.0,-0.313694387674,0.166458845139,-0.26611828804,0.0,0.0,-0.250514000654,0.131427496672,-0.0299285706133,0.0,0.0,0.0,10,1,0,8.30026421371e+13,1.16057109833,,,,,,,,,,,,,,,,,,,,-0.0180627983063,0.0119267078117,-0.00643703714013,0.0,0,2,0,0.787252426147,0,1,0.0,0.0025641026441,0.0,0.0371287129819,0.99816006422,0.776942372322,-0.998161792755,0.0,7,0,10.0,10.0,10.0,10.0,0.0,0.0,0.0,0.0,,,,-0.144112884998,0.0805121809244,-0.0724373757839,0,0,0.0,0.0,4.4279999733,0,77,,,,,,,,,,,,,,,,,,,,,,,,,,,,,,,,,11.3059043884,11.3807210922,-1.0,-1.0,,,,,,,,,,,,,,,,,,,,,,,,,,,,,,,,,1.54998469353,-0.655385553837,0.0407922528684,0.0139562739059,0.00497593404725,1.69977545738,,,,,,,,,,,,,,,,,,,,,,,,,,,,,,,,,,,,,,,,,,,,,,,,,,,,,,,,,,,,,,,,,36392719,PX4FMU_V1,c4e2232078f2f28cbf97b8280f40fd988a5c2a75,test,305419904.0
0.0285954326391,-0.0178545620292,2.40187716484,-0.0021125334315,-0.0120677640662,0.0273213647306,-0.100624874234,-0.232245892286,-9.61507797241,0.0,-0.00156632135622,2.32951593399,0.0,-0.100624874234,-0.232245892286,-9.61507797241,-0.000471537961857,-0.00791805703193,0.0479969456792,-0.302950948477,-0.270938754082,0.501897156239,1010.60998535,21.998922348,25.5499992371,0.0,0.0,-0.313694387674,0.166458845139,-0.269112378359,0.0,0.0,-0.250514000654,0.131427496672,-0.031274408102,0.0,0.0,0.0,10,1,0,8.50247999816e+13,1.16069173813,,,,,,,,,,,,,,,,,,,,-0.0183843690902,0.0121602835134,-0.0149871427566,0.0,0,2,0,0.787252426147,0,1,0.0,0.0025641026441,0.0,0.0371287129819,0.99816006422,0.776942372322,-0.998161792755,0.0,7,0,10.0,10.0,10.0,10.0,0.0,0.0,0.0,0.0,,,,-0.143530771136,0.0814728811383,-0.0725929141045,-12,-52,0.852612018585,3.46164703369,4.4279999733,43,77,,,,,,,,,,,,,,,,,,,,,,,,,,,,,,,,,11.3059043884,11.3806467056,-1.0,-1.0,,,,,,,,,,,,,,,,,,,,,,,,,,,,,,,,,1.54998469353,-0.655385553837,0.0407922528684,0.0139562739059,0.00497593404725,1.69977545738,,,,,,,,,,,,,,,,,,,,,,,,,,,,,,,,,,,,,,,,,,,,,,,,,,,,,,,,,,,,,,,,,36413837,PX4FMU_V1,c4e2232078f2f28cbf97b8280f40fd988a5c2a75,test,305419904.0
0.0284995418042,-0.0179319437593,2.40225887299,-0.00510650221258,-0.00532790413126,-0.0247911065817,0.0716545283794,0.00109216477722,-9.61671066284,0.0,-0.00156632135622,2.32951593399,0.0,0.0716545283794,0.00109216477722,-9.61671066284,-0.00606089364737,-0.0071468022652,-0.0538947656751,-0.305703103542,-0.248468413949,0.517028927803,1010.64996338,21.6652584076,25.5499992371,0.0,0.0,-0.313694387674,0.166458845139,-0.269600629807,0.0,0.0,-0.250514000654,0.131427496672,-0.0317785851657,0.0,0.0,0.0,10,1,0,8.60483275981e+13,1.1607517004,,,,,,,,,,,,,,,,,,,,-0.0179331954569,0.0113344239071,-0.00722759682685,0.0,0,2,0,0.787252426147,0,1,0.0,0.0025641026441,0.0,0.0371287129819,0.99816006422,0.779448628426,-0.998161792755,0.0,7,0,10.0,10.0,10.0,10.0,0.0,0.0,0.0,0.0,,,,-0.143054172397,0.0818599760532,-0.0729750841856,0,0,0.0,0.0,4.4279999733,0,77,,,,,,,,,,,,,,,,,,,,,,,,,,,,,,,,,11.3059043884,11.3804893494,-1.0,-1.0,,,,,,,,,,,,,,,,,,,,,,,,,,,,,,,,,1.54998469353,-0.655385553837,0.0407922528684,0.0139562739059,0.00497593404725,1.69977545738,,,,,,,,,,,,,,,,,,,,,,,,,,,,,,,,,,,,,,,,,,,,,,,,,,,,,,,,,,,,,,,,,36435125,PX4FMU_V1,c4e2232078f2f28cbf97b8280f40fd988a5c2a75,test,305419904.0
0.0283731091768,-0.0180734209716,2.40211606026,-0.000678339216392,-0.00991525128484,0.0263548474759,-0.0588863864541,-0.25725504756,-9.63355827332,0.0,-0.00156632135622,2.32951593399,0.0,-0.0588863864541,-0.25725504756,-9.63355827332,-0.000746633275412,-0.00696134660393,0.0482448600233,-0.253412395716,-0.230159252882,0.477864265442,1010.63995361,21.7486743927,25.5499992371,0.0,0.0,-0.313694387674,0.166458845139,-0.268872082233,0.0,0.0,-0.250514000654,0.131427496672,-0.03072870709,0.0,0.0,0.0,10,1,0,8.81459325829e+13,1.16087222099,,,,,,,,,,,,,,,,,,,,-0.018426515162,0.0120227308944,-0.0148781957105,0.0,0,2,0,0.787252426147,0,1,0.0,0.0025641026441,0.0,0.0371287129819,0.99816006422,0.779448628426,-0.998161792755,0.0,7,0,10.0,10.0,10.0,10.0,0.0,0.0,0.0,0.0,,,,-0.142420768738,0.0825673043728,-0.0728331208229,0,0,0.0,0.0,4.4279999733,0,77,,,,,,,,,,,,,,,,,,,,,,,,,,,,,,,,,11.2891426086,11.380314827,-1.0,-1.0,,,,,,,,,,,,,,,,,,,,,,,,,,,,,,,,,1.54998469353,-0.655385553837,0.0407922528684,0.0139562739059,0.00497593404725,1.69977545738,,,,,,,,,,,,,,,,,,,,,,,,,,,,,,,,,,,,,,,,,,,,,,,,,,,,,,,,,,,,,,,,,36457342,PX4FMU_V1,c4e2232078f2f28cbf97b8280f40fd988a5c2a75,test,305419904.0
0.0283238366246,-0.0181246716529,2.40247344971,-0.00218599732034,-0.00240246392787,-0.0214355401695,-0.0723391398787,-0.149302065372,-9.67546272278,0.0,-0.00156632135622,2.32951593399,0.0,-0.0723391398787,-0.149302065372,-9.67546272278,-0.00436091981828,-0.00372067978606,-0.0527478605509,-0.28185120225,-0.23265594244,0.493886202574,1010.64996338,21.6652584076,25.5499992371,0.0,0.0,-0.313694387674,0.166458845139,-0.268634974957,0.0,0.0,-0.250514000654,0.131427496672,-0.0301327370107,0.0,0.0,0.0,10,1,0,9.028763648e+13,1.16099250317,,,,,,,,,,,,,,,,,,,,-0.018198851496,0.0110794072971,-0.00776327727363,0.0,0,2,0,0.787252426147,0,1,0.0,0.0025641026441,0.0,0.0371287129819,0.99816006422,0.779448628426,-0.998161792755,0.0,7,0,10.0,10.0,10.0,10.0,0.0,0.0,0.0,0.0,,,,-0.142177164555,0.0828237533569,-0.0731907188892,0,0,0.0,0.0,4.4279999733,0,77,,,,,,,,,,,,,,,,,,,,,,,,,,,,,,,,,11.3059043884,11.3801574707,-1.0,-1.0,,,,,,,,,,,,,,,,,,,,,,,,,,,,,,,,,1.54998469353,-0.655385553837,0.0407922528684,0.0139562739059,0.00497593404725,1.69977545738,,,,,,,,,,,,,,,,,,,,,,,,,,,,,,,,,,,,,,,,,,,,,,,,,,,,,,,,,,,,,,,,,36478633,PX4FMU_V1,c4e2232078f2f28cbf97b8280f40fd988a5c2a75,test,305419904.0
0.0281868390739,-0.0182366352528,2.40358662605,5.41295048606e-05,-0.0100287357345,0.0224471241236,0.00406695203856,-0.237925678492,-9.69841384888,0.0,-0.00156632135622,2.32951593399,0.0,0.00406695203856,-0.237925678492,-9.69841384888,-0.000100347926491,-0.007460499648,0.0440891310573,-0.306620448828,-0.231823727489,0.501897156239,1010.57995605,22.2491779327,25.5499992371,0.0,0.0,-0.313694387674,0.166458845139,-0.270231127739,0.0,0.0,-0.250514000654,0.131427496672,-0.0310134552419,0.0,0.0,0.0,10,1,0,9.24638930534e+13,1.16111171246,,,,,,,,,,,,,,,,,,,,-0.0184021294117,0.0121436743066,-0.0145127447322,0.0,0,2,0,0.787252426147,0,1,0.0,0.0025641026441,0.0,0.0371287129819,0.99816006422,0.776942372322,-0.998161792755,0.0,7,0,10.0,10.0,10.0,10.0,0.0,0.0,0.0,0.0,,,,-0.141500711441,0.0833841487765,-0.0743045061827,0,0,0.0,0.0,4.4279999733,0,77,,,,,,,,,,,,,,,,,,,,,,,,,,,,,,,,,11.3059043884,11.3800001144,-1.0,-1.0,,,,,,,,,,,,,,,,,,,,,,,,,,,,,,,,,1.54998469353,-0.655385553837,0.0407922528684,0.0139562739059,0.00497593404725,1.69977545738,,,,,,,,,,,,,,,,,,,,,,,,,,,,,,,,,,,,,,,,,,,,,,,,,,,,,,,,,,,,,,,,,36500980,PX4FMU_V1,c4e2232078f2f28cbf97b8280f40fd988a5c2a75,test,305419904.0
0.0280986074358,-0.0183469615877,2.40377926826,-0.00543029233813,-0.00664491439238,-0.015155384317,-0.134874224663,-0.117831043899,-9.63658332825,0.0,-0.00156632135622,2.32951593399,0.0,-0.134874224663,-0.117831043899,-9.63658332825,-0.00851892214268,-0.00731023959816,-0.0444864220917,-0.286438107491,-0.221836894751,0.484985113144,1010.57995605,22.2491779327,25.5499992371,0.0,0.0,-0.313694387674,0.166458845139,-0.276259332895,0.0,0.0,-0.250514000654,0.131427496672,-0.0333841592073,0.0,0.0,0.0,10,1,0,9.47308137021e+13,1.1612329483,,,,,,,,,,,,,,,,,,,,-0.0176319815218,0.011775505729,-0.00890137720853,0.0,0,2,0,0.787252426147,0,1,0.0,0.0025641026441,0.0,0.0371287129819,0.99816006422,0.776942372322,-0.998161792755,0.0,7,0,10.0,10.0,10.0,10.0,0.0,0.0,0.0,0.0,,,,-0.141060933471,0.0839359015226,-0.0744978934526,6,7,0.0,0.0,4.4279999733,0,77,,,,,,,,,,,,,,,,,,,,,,,,,,,,,,,,,11.3059043884,11.3799257278,-1.0,-1.0,,,,,,,,,,,,,,,,,,,,,,,,,,,,,,,,,1.54998469353,-0.655385553837,0.0407922528684,0.0139562739059,0.00497593404725,1.69977545738,,,,,,,,,,,,,,,,,,,,,,,,,,,,,,,,,,,,,,,,,,,,,,,,,,,,,,,,,,,,,,,,,36521686,PX4FMU_V1,c4e2232078f2f28cbf97b8280f40fd988a5c2a75,test,305419904.0
0.0278883483261,-0.0185336433351,2.40406775475,-0.0063060792163,-0.0189218278974,0.0010845195502,0.0550788715482,-0.299237936735,-9.79210948944,0.0,-0.00156632135622,2.32951593399,0.0,0.0550788715482,-0.299237936735,-9.79210948944,-0.00416881823912,-0.0181142501533,0.0303544551134,-0.300198793411,-0.240978300571,0.509018003941,1010.63000488,21.8320903778,25.5499992371,0.0,0.0,-0.313694387674,0.166458845139,-0.275211840868,0.0,0.0,-0.250514000654,0.131427496672,-0.0316407494247,0.0,0.0,0.0,10,1,0,9.58669751583e+13,1.16129267216,,,,,,,,,,,,,,,,,,,,-0.0173817314208,0.0134928664193,-0.0113807432353,0.0,0,2,0,0.787252426147,0,1,0.0,0.0025641026441,0.0,0.0371287129819,0.99816006422,0.776942372322,-0.998161792755,0.0,7,0,10.0,10.0,10.0,10.0,0.0,0.0,0.0,0.0,,,,-0.140011712909,0.0848694518209,-0.0747870951891,0,0,0.0,0.0,4.4279999733,0,77,,,,,,,,,,,,,,,,,,,,,,,,,,,,,,,,,11.2975234985,11.3797616959,-1.0,-1.0,,,,,,,,,,,,,,,,,,,,,,,,,,,,,,,,,1.54998469353,-0.655385553837,0.0407922528684,0.0139562739059,0.00497593404725,1.69977545738,,,,,,,,,,,,,,,,,,,,,,,,,,,,,,,,,,,,,,,,,,,,,,,,,,,,,,,,,,,,,,,,,36542946,PX4FMU_V1,c4e2232078f2f28cbf97b8280f40fd988a5c2a75,test,305419904.0
0.0277203209698,-0.0187327563763,2.40344405174,-0.00562374433503,-0.0057361559011,-0.00657126773149,-0.0503733679652,-0.0989707261324,-9.71631240845,0.0,-0.00156632135622,2.32951593399,0.0,-0.0503733679652,-0.0989707261324,-9.71631240845,-0.00538394041359,-0.00253420625813,-0.0341602601111,-0.282768547535,-0.230159252882,0.481424689293,1010.57995605,22.2491779327,25.5499992371,0.0,0.0,-0.313694387674,0.166458845139,-0.278628438711,0.0,0.0,-0.250514000654,0.131427496672,-0.0334927402437,0.0,0.0,0.0,10,1,0,9.81964832113e+13,1.16141307354,,,,,,,,,,,,,,,,,,,,-0.0173605550081,0.0119081083685,-0.0101390462369,0.0,0,2,0,0.787252426147,0,1,0.0,0.0025641026441,0.0,0.0346534661949,1.0,0.776942372322,-0.998161792755,0.0,7,0,10.0,10.0,10.0,10.0,0.0,0.0,0.0,0.0,,,,-0.139166474342,0.0858646780252,-0.0741649121046,7,-18,0.0,0.0,4.4279999733,0,77,,,,,,,,,,,,,,,,,,,,,,,,,,,,,,,,,11.2975234985,11.3795976639,-1.0,-1.0,,,,,,,,,,,,,,,,,,,,,,,,,,,,,,,,,1.54998469353,-0.655385553837,0.0407922528684,0.0139562739059,0.00497593404725,1.69977545738,,,,,,,,,,,,,,,,,,,,,,,,,,,,,,,,,,,,,,,,,,,,,,,,,,,,,,,,,,,,,,,,,36564990,PX4FMU_V1,c4e2232078f2f28cbf97b8280f40fd988a5c2a75,test,305419904.0
0.0276965070516,-0.0187091063708,2.40296697617,0.0115203261375,-0.000167082849657,-0.00497561320662,0.129382148385,-0.241598576307,-9.80401420593,0.0,0.0,2.32951593399,0.0,0.129382148385,-0.241598576307,-9.80401420593,0.0188128147274,0.00542924180627,0.0245442967862,-0.252495020628,-0.283422261477,0.503677368164,1010.63995361,21.7486743927,25.5599994659,0.0,0.0,-0.313694387674,0.166458845139,-0.281540602446,0.0,0.0,-0.250514000654,0.131427496672,-0.0340171381831,0.0,0.0,0.0,10,1,0,1.005650654e+14,1.16153264046,,,,,,,,,,,,,,,,,,,,-0.0194982662797,0.0121841896325,-0.0103102019057,0.0,0,2,0,0.786348998547,0,1,0.0,-0.0,0.0,0.0346534661949,1.0,0.776942372322,-0.998161792755,0.0,7,0,10.0,10.0,10.0,10.0,0.0,0.0,0.0,0.0,,,,-0.138466343284,0.0935574620962,-0.0737102925777,0,0,0.0,0.0,4.4279999733,0,77,,,,,,,,,,,,,,,,,,,,,,,,,,,,,,,,,11.2891426086,11.3794336319,-1.0,-1.0,,,,,,,,,,,,,,,,,,,,,,,,,,,,,,,,,1.54998469353,-0.655385553837,0.0407922528684,0.0139562739059,0.00497593404725,1.69977545738,,,,,,,,,,,,,,,,,,,,,,,,,,,,,,,,,,,,,,,,,,,,,,,,,,,,,,,,,,,,,,,,,36586425,PX4FMU_V1,c4e2232078f2f28cbf97b8280f40fd988a5c2a75,test,305419904.0
0.0281109660864,-0.0183040816337,2.40405440331,0.0231608599424,0.0223045572639,-0.00112017896026,-0.0920243933797,-0.232034832239,-9.70984554291,0.0,-0.00156632135622,2.32951593399,0.0,-0.0920243933797,-0.232034832239,-9.70984554291,0.0205933190882,0.0197051875293,-0.0300682708621,-0.26075142622,-0.270106524229,0.510798215866,1010.58996582,22.1657581329,25.5599994659,0.0,0.0,-0.313694387674,0.166458845139,-0.285110086203,0.0,0.0,-0.250514000654,0.131427496672,-0.0356259904802,0.0,0.0,0.0,10,1,0,1.03016535425e+14,1.16165328026,,,,,,,,,,,,,,,,,,,,-0.0213571507484,0.00798422284424,-0.0110478224233,0.0,0,2,0,0.786348998547,0,1,0.0,0.0025641026441,0.0,0.0371287129819,0.99816006422,0.776942372322,-0.998161792755,0.0,7,0,10.0,10.0,10.0,10.0,0.0,0.0,0.0,0.0,,,,-0.141124919057,0.0837216600776,-0.0747723281384,0,0,0.0,0.0,4.4279999733,0,77,,,,,,,,,,,,,,,,,,,,,,,,,,,,,,,,,11.2975234985,11.379278183,-1.0,-1.0,,,,,,,,,,,,,,,,,,,,,,,,,,,,,,,,,1.54998469353,-0.655385553837,0.0407922528684,0.0139562739059,0.00497593404725,1.69977545738,,,,,,,,,,,,,,,,,,,,,,,,,,,,,,,,,,,,,,,,,,,,,,,,,,,,,,,,,,,,,,,,,36608986,PX4FMU_V1,c4e2232078f2f28cbf97b8280f40fd988a5c2a75,test,305419904.0
0.0283699668944,-0.0179656296968,2.40439653397,0.0190710313618,0.00912310741842,-0.0116633530706,0.0881848409772,-0.192436039448,-9.82845878601,0.0,-0.00156632135622,2.32951593399,0.0,0.0881848409772,-0.192436039448,-9.82845878601,0.019698150456,0.00622578104958,0.0151891484857,-0.276346892118,-0.272603243589,0.492105990648,1010.66998291,21.4984302521,25.5599994659,0.0,0.0,-0.313694387674,0.166458845139,-0.28864350915,0.0,0.0,-0.250514000654,0.131427496672,-0.0366890020669,0.0,0.0,0.0,10,1,0,1.05532597731e+14,1.16177415848,,,,,,,,,,,,,,,,,,,,-0.0209942273796,0.00947784073651,-0.0095173176378,0.0,0,2,0,0.786348998547,0,1,0.0,0.0025641026441,0.0,0.0371287129819,0.99816006422,0.776942372322,-0.998161792755,0.0,7,0,10.0,10.0,10.0,10.0,0.0,0.0,0.0,0.0,,,,-0.142423033714,0.0820295810699,-0.0751121342182,0,0,0.0,0.0,4.4279999733,0,77,,,,,,,,,,,,,,,,,,,,,,,,,,,,,,,,,11.3059043884,11.3792047501,-1.0,-1.0,,,,,,,,,,,,,,,,,,,,,,,,,,,,,,,,,1.54998469353,-0.655385553837,0.0407922528684,0.0139562739059,0.00497593404725,1.69977545738,,,,,,,,,,,,,,,,,,,,,,,,,,,,,,,,,,,,,,,,,,,,,,,,,,,,,,,,,,,,,,,,,36629660,PX4FMU_V1,c4e2232078f2f28cbf97b8280f40fd988a5c2a75,test,305419904.0
0.0286427345127,-0.017741151154,2.40533804893,0.0103825386614,0.00712379580364,0.0194434374571,-0.119618400931,-0.192206442356,-9.68186092377,0.0,-0.00156632135622,2.32951593399,0.0,-0.119618400931,-0.192206442356,-9.68186092377,0.00458518369123,0.00351470708847,-0.00196258164942,-0.253412395716,-0.265945345163,0.499226868153,1010.65997314,21.5818443298,25.5599994659,0.0,0.0,-0.313694387674,0.166458845139,-0.287246197462,0.0,0.0,-0.250514000654,0.131427496672,-0.0352438539267,0.0,0.0,0.0,10,1,0,1.06782894588e+14,1.16183304787,,,,,,,,,,,,,,,,,,,,-0.0200430005789,0.00959191657603,-0.014324423857,0.0,0,2,0,0.786348998547,0,1,0.0,0.0025641026441,0.0,0.0371287129819,0.99816006422,0.776942372322,-0.998161792755,0.0,7,0,10.0,10.0,10.0,10.0,0.0,0.0,0.0,0.0,,,,-0.14379440248,0.0809077769518,-0.0760527178645,0,0,0.0,0.0,4.4279999733,0,77,,,,,,,,,,,,,,,,,,,,,,,,,,,,,,,,,11.2975234985,11.3790407181,-1.0,-1.0,,,,,,,,,,,,,,,,,,,,,,,,,,,,,,,,,1.54998469353,-0.655385553837,0.0407922528684,0.0139562739059,0.00497593404725,1.69977545738,,,,,,,,,,,,,,,,,,,,,,,,,,,,,,,,,,,,,,,,,,,,,,,,,,,,,,,,,,,,,,,,,36650937,PX4FMU_V1,c4e2232078f2f28cbf97b8280f40fd988a5c2a75,test,305419904.0
0.0285016894341,-0.0178372971714,2.40599989891,-0.00730480765924,-0.0188046488911,-0.0148251280189,0.105800956488,-0.173345595598,-9.85721588135,0.0,-0.00156632135622,2.32951593399,0.0,0.105800956488,-0.173345595598,-9.85721588135,-0.0052278842777,-0.0190120153129,0.0107321217656,-0.31579425931,-0.210185602307,0.499226868153,1010.63995361,21.7486743927,25.5599994659,0.0,0.0,-0.313694387674,0.166458845139,-0.286372214556,0.0,0.0,-0.250514000654,0.131427496672,-0.0326185971498,0.0,0.0,0.0,10,1,0,1.0937340579e+14,1.16195321083,,,,,,,,,,,,,,,,,,,,-0.0176526363939,0.0130251590163,-0.00928343180567,0.0,0,2,0,0.786348998547,0,1,0.0,0.0025641026441,0.0,0.0371287129819,0.99816006422,0.776942372322,-0.996323525906,0.0,7,0,10.0,10.0,10.0,10.0,0.0,0.0,0.0,0.0,,,,-0.143094316125,0.0813888907433,-0.0767146721482,0,0,0.0,0.0,4.4279999733,0,77,,,,,,,,,,,,,,,,,,,,,,,,,,,,,,,,,11.3059043884,11.3788862228,-1.0,-1.0,,,,,,,,,,,,,,,,,,,,,,,,,,,,,,,,,1.54998469353,-0.655385553837,0.0407922528684,0.0139562739059,0.00497593404725,1.69977545738,,,,,,,,,,,,,,,,,,,,,,,,,,,,,,,,,,,,,,,,,,,,,,,,,,,,,,,,,,,,,,,,,36673527,PX4FMU_V1,c4e2232078f2f28cbf97b8280f40fd988a5c2a75,test,305419904.0
