ATT_Roll,ATT_Pitch,ATT_Yaw,ATT_RollRate,ATT_PitchRate,ATT_YawRate,ATT_GX,ATT_GY,ATT_GZ,ATSP_RollSP,ATSP_PitchSP,ATSP_YawSP,ATSP_ThrustSP,IMU_AccX,IMU_AccY,IMU_AccZ,IMU_GyroX,IMU_GyroY,IMU_GyroZ,IMU_MagX,IMU_MagY,IMU_MagZ,SENS_BaroPres,SENS_BaroAlt,SENS_BaroTemp,SENS_DiffPres,SENS_DiffPresFilt,LPOS_X,LPOS_Y,LPOS_Z,LPOS_Dist,LPOS_DistR,LPOS_VX,LPOS_VY,LPOS_VZ,LPOS_RLat,LPOS_RLon,LPOS_RAlt,LPOS_PFlg,LPOS_LFlg,LPOS_GFlg,LPOS_EPH,LPOS_EPV,LPSP_X,LPSP_Y,LPSP_Z,LPSP_Yaw,GPS_GPSTime,GPS_Fix,GPS_EPH,GPS_EPV,GPS_Lat,GPS_Lon,GPS_Alt,GPS_VelN,GPS_VelE,GPS_VelD,GPS_Cog,GPS_nSat,GPS_SNR,GPS_N,GPS_J,ATTC_Roll,ATTC_Pitch,ATTC_Yaw,ATTC_Thrust,STAT_MainState,STAT_ArmState,STAT_FailsafeState,STAT_BatRem,STAT_BatWarn,STAT_Landed,RC_Ch0,RC_Ch1,RC_Ch2,RC_Ch3,RC_Ch4,RC_Ch5,RC_Ch6,RC_Ch7,RC_Count,RC_SignalLost,OUT0_Out0,OUT0_Out1,OUT0_Out2,OUT0_Out3,OUT0_Out4,OUT0_Out5,OUT0_Out6,OUT0_Out7,AIRS_IndSpeed,AIRS_TrueSpeed,AIRS_AirTemp,ARSP_RollRateSP,ARSP_PitchRateSP,ARSP_YawRateSP,FLOW_RawX,FLOW_RawY,FLOW_CompX,FLOW_CompY,FLOW_Dist,FLOW_Q,FLOW_SensID,GPOS_Lat,GPOS_Lon,GPOS_Alt,GPOS_VelN,GPOS_VelE,GPOS_VelD,GPOS_EPH,GPOS_EPV,GPSP_NavState,GPSP_Lat,GPSP_Lon,GPSP_Alt,GPSP_Yaw,GPSP_Type,GPSP_LoitR,GPSP_LoitDir,GPSP_PitMin,ESC_count,ESC_nESC,ESC_Conn,ESC_N,ESC_Ver,ESC_Adr,ESC_Volt,ESC_Amp,ESC_RPM,ESC_Temp,ESC_SetP,ESC_SetPRAW,GVSP_VX,GVSP_VY,GVSP_VZ,BATT_V,BATT_VFilt,BATT_C,BATT_Discharged,DIST_Bottom,DIST_BottomRate,DIST_Flags,TELE_RSSI,TELE_RemRSSI,TELE_Noise,TELE_RemNoise,TELE_RXErr,TELE_Fixed,TELE_TXBuf,ESTM_s0,ESTM_s1,ESTM_s2,ESTM_s3,ESTM_s4,ESTM_s5,ESTM_s6,ESTM_s7,ESTM_s8,ESTM_s9,ESTM_nStat,ESTM_statNaN,ESTM_covNaN,ESTM_kGainNaN,PWR_Periph5V,PWR_Servo5V,PWR_RSSI,PWR_UsbOk,PWR_BrickOk,PWR_ServoOk,PWR_PeriphOC,PWR_HipwrOC,VICN_X,VICN_Y,VICN_Z,VICN_Roll,VICN_Pitch,VICN_Yaw,GS0A_s0,GS0A_s1,GS0A_s2,GS0A_s3,GS0A_s4,GS0A_s5,GS0A_s6,GS0A_s7,GS0A_s8,GS0A_s9,GS0A_s10,GS0A_s11,GS0A_s12,GS0A_s13,GS0A_s14,GS0A_s15,GS0B_s0,GS0B_s1,GS0B_s2,GS0B_s3,GS0B_s4,GS0B_s5,GS0B_s6,GS0B_s7,GS0B_s8,GS0B_s9,GS0B_s10,GS0B_s11,GS0B_s12,GS0B_s13,GS0B_s14,GS0B_s15,GS1A_s0,GS1A_s1,GS1A_s2,GS1A_s3,GS1A_s4,GS1A_s5,GS1A_s6,GS1A_s7,GS1A_s8,GS1A_s9,GS1A_s10,GS1A_s11,GS1A_s12,GS1A_s13,GS1A_s14,GS1A_s15,GS1B_s0,GS1B_s1,GS1B_s2,GS1B_s3,GS1B_s4,GS1B_s5,GS1B_s6,GS1B_s7,GS1B_s8,GS1B_s9,GS1B_s10,GS1B_s11,GS1B_s12,GS1B_s13,GS1B_s14,GS1B_s15,TIME_StartTime,VER_Arch,VER_FwGit,PARM_Name,PARM_Value
,,,,,,,,,,,,,,,,,,,,,,,,,,,,,,,,,,,,,,,,,,,,,,,,,,,,,,,,,,,,,,,,,,,,,,,,,,,,,,,,,,,,,,,,,,,,,,,,,,,,,,,,,,,,,,,,,,,,,,,,,,,,,,,,,,,,,,,,,,,,,,,,,,,,,,,,,,,,,,,,,,,,,,,,,,,,,,,,,,,,,,,,,,,,,,,,,,,,,,,,,,,,,,,,,,,,,,,,,,,,,,,,,,,,,,,,,,,,,,,,,,PX4FMU_V1,251760679a4bed86fdb10746062fde2cc23e460f,test,305419904.0
0.00172190181911,-0.0134348897263,-2.22942376137,-0.0138315912336,-0.00132544862572,-0.0139091536403,-0.0504747852683,0.0656609013677,-9.8752040863,0.0,0.0,-2.18109536171,0.0,-0.0504747852683,0.0656609013677,-9.8752040863,0.0256500374526,0.00144285196438,-0.107561595738,-0.0956229865551,0.109392568469,0.410216152668,1019.38000488,-50.9023895264,37.0900001526,0.0,0.0,-12.6052703857,-2.14062190056,-0.385016322136,0.718835711479,1.49755716324,-3.58192300797,3.90057015419,-0.080013088882,0.0,0.0,0.0,10,1,0,20.0387706757,3.19386696815,,,,,,,,,,,,,,,,,,,,0.000678937474731,0.00890499074012,0.00933388900012,0.0,0,2,0,0.969290435314,0,1,0.0,-0.0,0.0,0.0371287129819,-1.0,0.776942372322,-0.998161792755,0.0,7,0,10.0,10.0,10.0,10.0,0.0,0.0,0.0,0.0,,,,-0.00860899500549,0.0671744793653,0.0483167693019,0,0,0.0,0.0,4.6859998703,0,77,,,,,,,,,,,,,,,,,,,,,,,,,,,,,,,,,11.6411428452,11.632109642,-1.0,-1.0,,,,,,,,,,,,,,,,,,,,,,,,,,,,,,,,,,,,,,,,,,,,,,,,,,,,,,,,,,,,,,,,,,,,,,,,,,,,,,,,,,,,,,,,,,,,,,,,,,,,,,,442861521,PX4FMU_V1,251760679a4bed86fdb10746062fde2cc23e460f,test,305419904.0
0.00183958711568,-0.0132614290342,-2.22942185402,0.0219870563596,-0.0126090245321,0.0307067222893,-0.149858519435,0.553771853447,-10.4936637878,0.0,0.0,-2.18109536171,0.0,-0.149858519435,0.553771853447,-10.4936637878,0.0379533618689,-0.0338009856641,0.0851398780942,-0.0809449031949,0.11521820724,0.389743715525,1019.40997314,-51.150894165,37.0900001526,0.0,0.0,-12.6052703857,-2.14062190056,-0.385221302509,0.718835711479,1.49755716324,-3.58192300797,3.90057015419,-0.0794095769525,0.0,0.0,0.0,10,1,0,20.0387706757,3.19398760796,,,,,,,,,,,,,,,,,,,,-0.00405397871509,0.0102591086179,0.00264112651348,0.0,0,2,0,0.957049667835,0,1,0.0,-0.0,0.0,0.0371287129819,-1.0,0.776942372322,-0.998161792755,0.0,7,0,10.0,10.0,10.0,10.0,0.0,0.0,0.0,0.0,,,,-0.00919739808887,0.066307194531,0.0483142323792,-6,-13,1.01731753349,2.0474627018,4.6859998703,0,77,,,,,,,,,,,,,,,,,,,,,,,,,,,,,,,,,11.649523735,11.6321353912,-1.0,-1.0,,,,,,,,,,,,,,,,,,,,,,,,,,,,,,,,,,,,,,,,,,,,,,,,,,,,,,,,,,,,,,,,,,,,,,,,,,,,,,,,,,,,,,,,,,,,,,,,,,,,,,,442882381,PX4FMU_V1,251760679a4bed86fdb10746062fde2cc23e460f,test,305419904.0
0.00376516045071,-0.0143662914634,-2.22953295708,0.0701336488128,-0.0564202852547,-0.0276085063815,0.330877155066,-0.349083423615,-9.50573635101,0.0,0.0,-2.18109536171,0.0,0.330877155066,-0.349083423615,-9.50573635101,0.0264961309731,-0.0558539219201,0.00202548038214,-0.115805365145,0.137688547373,0.40042501688,1019.38995361,-50.9852256775,37.0900001526,0.0,0.0,-12.6052703857,-2.14062190056,-0.384287297726,0.718835711479,1.49755716324,-3.58192300797,3.90057015419,-0.0766252428293,0.0,0.0,0.0,10,1,0,20.0387706757,3.19410824776,,,,,,,,,,,,,,,,,,,,-0.0115645593032,0.0166727472097,0.0114028714597,0.0,0,2,0,0.954762160778,0,1,0.0,-0.0,0.0,0.0371287129819,-1.0,0.776942372322,-0.998161792755,0.0,7,0,10.0,10.0,10.0,10.0,0.0,0.0,0.0,0.0,,,,-0.0188245046884,0.0718316286802,0.0484106317163,-14,4,2.10384726524,-0.685412287712,4.6859998703,63,77,,,,,,,,,,,,,,,,,,,,,,,,,,,,,,,,,11.649523735,11.6321611404,-1.0,-1.0,,,,,,,,,,,,,,,,,,,,,,,,,,,,,,,,,,,,,,,,,,,,,,,,,,,,,,,,,,,,,,,,,,,,,,,,,,,,,,,,,,,,,,,,,,,,,,,,,,,,,,,442904586,PX4FMU_V1,251760679a4bed86fdb10746062fde2cc23e460f,test,305419904.0
0.0044568227604,-0.0154556920752,-2.22858643532,0.0673561021686,-0.0502294376493,0.0204744413495,-0.684562683105,0.0739918574691,-9.80999565125,0.0,0.0,-2.18109536171,0.0,-0.684562683105,0.0739918574691,-9.80999565125,0.0970242545009,-0.0367358066142,-0.0138613078743,-0.0699363574386,0.11521820724,0.396864563227,1019.38995361,-50.9852256775,37.0900001526,0.0,0.0,-12.6052703857,-2.14062190056,-0.384137690067,0.718835711479,1.49755716324,-3.58192300797,3.90057015419,-0.0796983540058,0.0,0.0,0.0,10,1,0,20.0387706757,3.19416928291,,,,,,,,,,,,,,,,,,,,-0.0116529967636,0.0165760610253,0.00404733046889,0.0,0,2,0,0.954762160778,0,1,0.0,-0.0,0.0,0.0371287129819,-1.0,0.776942372322,-0.998161792755,0.0,7,0,10.0,10.0,10.0,10.0,0.0,0.0,0.0,0.0,,,,-0.0222823414952,0.0772787183523,0.0474566444755,0,0,0.0,0.0,4.6859998703,0,77,,,,,,,,,,,,,,,,,,,,,,,,,,,,,,,,,11.6411428452,11.6321697235,-1.0,-1.0,,,,,,,,,,,,,,,,,,,,,,,,,,,,,,,,,,,,,,,,,,,,,,,,,,,,,,,,,,,,,,,,,,,,,,,,,,,,,,,,,,,,,,,,,,,,,,,,,,,,,,,442925817,PX4FMU_V1,251760679a4bed86fdb10746062fde2cc23e460f,test,305419904.0
0.00596516160294,-0.0161993354559,-2.22521877289,0.0182899199426,-0.0336106084287,-0.0150824729353,0.21847422421,0.258707106113,-9.86479949951,0.0,0.0,-2.18109536171,0.0,0.21847422421,0.258707106113,-9.86479949951,-0.0225316286087,-0.0301588643342,0.0180383883417,-0.0460844524205,0.130198433995,0.378172367811,1019.38995361,-50.9852256775,37.0999984741,0.0,0.0,-12.6052703857,-2.14062190056,-0.381918311119,0.718835711479,1.49755716324,-3.58192300797,3.90057015419,-0.0774738416076,0.0,0.0,0.0,10,1,0,20.0387706757,3.19428801537,,,,,,,,,,,,,,,,,,,,-0.00625470466912,0.0148990089074,0.00887361820787,0.0,0,2,0,0.954762160778,0,1,0.0,-0.0,0.0,0.0371287129819,-1.0,0.776942372322,-0.998161792755,0.0,7,0,10.0,10.0,10.0,10.0,0.0,0.0,0.0,0.0,,,,-0.0298231951892,0.0809971541166,0.0440749824047,0,0,0.0,0.0,4.6859998703,0,77,,,,,,,,,,,,,,,,,,,,,,,,,,,,,,,,,11.6411428452,11.6321868896,-1.0,-1.0,,,,,,,,,,,,,,,,,,,,,,,,,,,,,,,,,,,,,,,,,,,,,,,,,,,,,,,,,,,,,,,,,,,,,,,,,,,,,,,,,,,,,,,,,,,,,,,,,,,,,,,442948521,PX4FMU_V1,251760679a4bed86fdb10746062fde2cc23e460f,test,305419904.0
0.00610007671639,-0.0165972355753,-2.2240126133,0.0238617118448,-0.00368907838129,0.00393305160105,-0.598667144775,-0.417474210262,-9.91210460663,0.0,0.0,-2.18109536171,0.0,-0.598667144775,-0.417474210262,-9.91210460663,0.0537908300757,0.00155697530136,-0.023482164368,-0.0873665586114,0.150172069669,0.383513003588,1019.38995361,-50.9852256775,37.0999984741,0.0,0.0,-12.6052703857,-2.14062190056,-0.380951941013,0.718835711479,1.49755716324,-3.58192300797,3.90057015419,-0.0785356089473,0.0,0.0,0.0,10,1,0,20.0387706757,3.19440889359,,,,,,,,,,,,,,,,,,,,-0.00706670805812,0.0112678501755,0.00584004214033,0.0,0,2,0,0.954762160778,0,1,0.0,-0.0,0.0,0.0371287129819,-1.0,0.776942372322,-0.998161792755,0.0,7,0,10.0,10.0,10.0,10.0,0.0,0.0,0.0,0.0,,,,-0.0304975807667,0.082986690104,0.0428666621447,0,0,0.0,0.0,4.6859998703,0,77,,,,,,,,,,,,,,,,,,,,,,,,,,,,,,,,,11.6411428452,11.6322040558,-1.0,-1.0,,,,,,,,,,,,,,,,,,,,,,,,,,,,,,,,,,,,,,,,,,,,,,,,,,,,,,,,,,,,,,,,,,,,,,,,,,,,,,,,,,,,,,,,,,,,,,,,,,,,,,,442968957,PX4FMU_V1,251760679a4bed86fdb10746062fde2cc23e460f,test,305419904.0
0.00618561729789,-0.0163155384362,-2.22504758835,-0.0440977960825,0.0212585460395,0.0126673579216,-0.0352348461747,-0.142476424575,-9.75025653839,0.0,0.0,-2.18109536171,0.0,-0.0352348461747,-0.142476424575,-9.75025653839,-0.0838055312634,0.0267850477248,0.0382665358484,-0.0800275206566,0.141849726439,0.375502020121,1019.39996338,-51.0680618286,37.0900001526,0.0,0.0,-12.6052703857,-2.14062190056,-0.380517184734,0.718835711479,1.49755716324,-3.58192300797,3.90057015419,-0.0766521990299,0.0,0.0,0.0,10,1,0,20.0387706757,3.19453001022,,,,,,,,,,,,,,,,,,,,0.00171241909266,0.00784155447036,0.00468514114618,0.0,0,2,0,0.954762160778,0,1,0.0,-0.0,0.0,0.0371287129819,-1.0,0.776942372322,-0.998161792755,0.0,7,0,10.0,10.0,10.0,10.0,0.0,0.0,0.0,0.0,,,,-0.0309253409505,0.0815782025456,0.043901629746,0,0,0.0,0.0,4.6859998703,0,77,,,,,,,,,,,,,,,,,,,,,,,,,,,,,,,,,11.6411428452,11.6322212219,-1.0,-1.0,,,,,,,,,,,,,,,,,,,,,,,,,,,,,,,,,,,,,,,,,,,,,,,,,,,,,,,,,,,,,,,,,,,,,,,,,,,,,,,,,,,,,,,,,,,,,,,,,,,,,,,442990384,PX4FMU_V1,251760679a4bed86fdb10746062fde2cc23e460f,test,305419904.0
0.00465373741463,-0.0153030743822,-2.22906422615,-0.0546498559415,0.0615234225988,-0.0253661368042,-0.205833733082,-0.067116253078,-9.94879436493,0.0,0.0,-2.18109536171,0.0,-0.205833733082,-0.067116253078,-9.94879436493,-0.0258825067431,0.0574037954211,-0.0529523491859,-0.124979175627,0.141017496586,0.397754698992,1019.38000488,-50.9023895264,37.0900001526,0.0,0.0,-12.6052703857,-2.14062190056,-0.380582869053,0.718835711479,1.49755716324,-3.58192300797,3.90057015419,-0.0790293291211,0.0,0.0,0.0,10,1,0,20.0387706757,3.19464993477,,,,,,,,,,,,,,,,,,,,0.00407978799194,0.00194898876362,0.0109948934987,0.0,0,2,0,0.954762160778,0,1,0.0,-0.0,0.0,0.0371287129819,-1.0,0.776942372322,-0.998161792755,0.0,7,0,10.0,10.0,10.0,10.0,0.0,0.0,0.0,0.0,,,,-0.0232668686658,0.0765156447887,0.0479331538081,0,0,0.0,0.0,4.6859998703,0,77,,,,,,,,,,,,,,,,,,,,,,,,,,,,,,,,,11.6327619553,11.6322231293,-1.0,-1.0,,,,,,,,,,,,,,,,,,,,,,,,,,,,,,,,,,,,,,,,,,,,,,,,,,,,,,,,,,,,,,,,,,,,,,,,,,,,,,,,,,,,,,,,,,,,,,,,,,,,,,,443012738,PX4FMU_V1,251760679a4bed86fdb10746062fde2cc23e460f,test,305419904.0
0.00389703107066,-0.0142903402448,-2.23260712624,-0.0636014640331,0.0487553402781,0.0104440543801,-0.0597685985267,-0.350051045418,-9.76467323303,0.0,0.0,-2.18109536171,0.0,-0.0597685985267,-0.350051045418,-9.76467323303,-0.079034075141,0.038172930479,0.0465458184481,-0.144244149327,0.153501003981,0.392414063215,1019.38000488,-50.9023895264,37.0900001526,0.0,0.0,-12.6052703857,-2.14062190056,-0.380963653326,0.718835711479,1.49755716324,-3.58192300797,3.90057015419,-0.0783934891224,0.0,0.0,0.0,10,1,0,20.0387706757,3.19470953941,,,,,,,,,,,,,,,,,,,,0.00573529163375,0.00295055191964,0.00615596817806,0.0,0,2,0,0.954762160778,0,1,0.0,-0.0,0.0,0.0371287129819,-1.0,0.776942372322,-0.998161792755,0.0,7,0,10.0,10.0,10.0,10.0,0.0,0.0,0.0,0.0,,,,-0.0194838326424,0.0714518949389,0.0514838397503,0,0,0.0,0.0,4.6859998703,0,77,,,,,,,,,,,,,,,,,,,,,,,,,,,,,,,,,11.5908565521,11.6321821213,-1.0,-1.0,,,,,,,,,,,,,,,,,,,,,,,,,,,,,,,,,,,,,,,,,,,,,,,,,,,,,,,,,,,,,,,,,,,,,,,,,,,,,,,,,,,,,,,,,,,,,,,,,,,,,,,443033406,PX4FMU_V1,251760679a4bed86fdb10746062fde2cc23e460f,test,305419904.0
0.00239856541157,-0.0134775163606,-2.23460459709,-0.0607134588063,0.0421915799379,0.0143547113985,0.0477583259344,0.491755247116,-9.80337333679,0.0,0.0,-2.18109536171,0.0,0.0477583259344,0.491755247116,-9.80337333679,-0.032753046602,0.0379810445011,-0.0079548927024,-0.157087489963,0.150172069669,0.398644804955,1019.35998535,-50.7367172241,37.0799980164,0.0,0.0,-12.6052703857,-2.14062190056,-0.381535708904,0.718835711479,1.49755716324,-3.58192300797,3.90057015419,-0.0797331780195,0.0,0.0,0.0,10,1,0,20.0387706757,3.19483017921,,,,,,,,,,,,,,,,,,,,0.00633377628401,0.00327548873611,0.00587073899806,0.0,0,2,0,0.954762160778,0,1,0.0,-0.0,0.0,0.0371287129819,-1.0,0.776942372322,-0.998161792755,0.0,7,0,10.0,10.0,10.0,10.0,0.0,0.0,0.0,0.0,,,,-0.0119921006262,0.0673876479268,0.0534929670393,0,0,0.0,0.0,4.6859998703,0,77,,,,,,,,,,,,,,,,,,,,,,,,,,,,,,,,,11.5405712128,11.6320161819,-1.0,-1.0,,,,,,,,,,,,,,,,,,,,,,,,,,,,,,,,,,,,,,,,,,,,,,,,,,,,,,,,,,,,,,,,,,,,,,,,,,,,,,,,,,,,,,,,,,,,,,,,,,,,,,,443054741,PX4FMU_V1,251760679a4bed86fdb10746062fde2cc23e460f,test,305419904.0
0.00283564254642,-0.0134526491165,-2.23937320709,0.0508451722562,-0.036672629416,-0.011305609718,-0.212318867445,-0.379932135344,-9.81754493713,0.0,0.0,-2.18109536171,0.0,-0.212318867445,-0.379932135344,-9.81754493713,0.0540404655039,-0.0569216683507,0.00175334373489,-0.139657258987,0.140185251832,0.403095304966,1019.32995605,-50.4882011414,37.0799980164,0.0,0.0,-12.6052703857,-2.14062190056,-0.386290311813,0.718835711479,1.49755716324,-3.58192300797,3.90057015419,-0.0819205790758,0.0,0.0,0.0,10,1,0,20.0387706757,3.19495010376,,,,,,,,,,,,,,,,,,,,-0.00845292862505,0.01351167541,0.0104346424341,0.0,0,2,0,0.954762160778,0,1,0.0,-0.0,0.0,0.0371287129819,-1.0,0.776942372322,-0.998161792755,0.0,7,0,10.0,10.0,10.0,10.0,0.0,0.0,0.0,0.0,,,,-0.0141773568466,0.0672633424401,0.0582586713135,0,0,0.0,0.0,4.6859998703,0,77,,,,,,,,,,,,,,,,,,,,,,,,,,,,,,,,,11.5489521027,11.6318502426,-1.0,-1.0,,,,,,,,,,,,,,,,,,,,,,,,,,,,,,,,,,,,,,,,,,,,,,,,,,,,,,,,,,,,,,,,,,,,,,,,,,,,,,,,,,,,,,,,,,,,,,,,,,,,,,,443076509,PX4FMU_V1,251760679a4bed86fdb10746062fde2cc23e460f,test,305419904.0
0.00349072460085,-0.0143553400412,-2.24294304848,0.0377862751484,-0.047206364572,0.0231811460108,-0.207353800535,0.341169923544,-9.90800857544,0.0,0.0,-2.18109536171,0.0,-0.207353800535,0.341169923544,-9.90800857544,0.0299051888287,-0.0276807751507,0.0233886670321,-0.126813918352,0.137688547373,0.403095304966,1019.41998291,-51.2337265015,37.0900001526,0.0,0.0,-12.6052703857,-2.14062190056,-0.387580394745,0.718835711479,1.49755716324,-3.58192300797,3.90057015419,-0.0830622464418,0.0,0.0,0.0,10,1,0,20.0387706757,3.19507026672,,,,,,,,,,,,,,,,,,,,-0.00718103069812,0.0154678178951,0.00579621829093,0.0,0,2,0,0.954762160778,0,1,0.0,-0.0,0.0,0.0371287129819,-1.0,0.776942372322,-0.998161792755,0.0,7,0,10.0,10.0,10.0,10.0,0.0,0.0,0.0,0.0,,,,-0.0174524243921,0.0717768520117,0.0618226006627,-3,-3,0.484906494617,0.469999790192,4.6859998703,0,77,,,,,,,,,,,,,,,,,,,,,,,,,,,,,,,,,11.5573329926,11.6317014694,-1.0,-1.0,,,,,,,,,,,,,,,,,,,,,,,,,,,,,,,,,,,,,,,,,,,,,,,,,,,,,,,,,,,,,,,,,,,,,,,,,,,,,,,,,,,,,,,,,,,,,,,,,,,,,,,443097177,PX4FMU_V1,251760679a4bed86fdb10746062fde2cc23e460f,test,305419904.0
0.00432179216295,-0.0148120680824,-2.24113464355,0.0563394315541,-0.0306946281344,-0.0302450545132,-0.139489650726,-0.280905902386,-9.78573608398,0.0,0.0,-2.18109536171,0.0,-0.139489650726,-0.280905902386,-9.78573608398,0.0569049268961,-0.0320011526346,-0.0432540476322,-0.0800275206566,0.141849726439,0.38440310955,1019.38000488,-50.9023895264,37.0900001526,0.0,0.0,-12.6052703857,-2.14062190056,-0.387580394745,0.718835711479,1.49755716324,-3.58192300797,3.90057015419,-0.0830622464418,0.0,0.0,0.0,10,1,0,20.0387706757,3.19507026672,,,,,,,,,,,,,,,,,,,,-0.00718103069812,0.0154678178951,0.00579621829093,0.0,0,2,0,0.954417526722,0,1,0.0,-0.0,0.0,0.0371287129819,-1.0,0.776942372322,-0.998161792755,0.0,7,0,10.0,10.0,10.0,10.0,0.0,0.0,0.0,0.0,,,,-0.0216073766351,0.0740605443716,0.0600072778761,-3,-3,0.484906494617,0.469999790192,4.6859998703,0,77,,,,,,,,,,,,,,,,,,,,,,,,,,,,,,,,,11.5573329926,11.6317014694,-1.0,-1.0,,,,,,,,,,,,,,,,,,,,,,,,,,,,,,,,,,,,,,,,,,,,,,,,,,,,,,,,,,,,,,,,,,,,,,,,,,,,,,,,,,,,,,,,,,,,,,,,,,,,,,,443118213,PX4FMU_V1,251760679a4bed86fdb10746062fde2cc23e460f,test,305419904.0
0.00444949278608,-0.015314639546,-2.24116373062,-0.04448864609,0.0378338992596,0.00659138243645,-0.264734268188,0.423355102539,-9.75432872772,0.0,0.0,-2.18109536171,0.0,-0.264734268188,0.423355102539,-9.75432872772,-0.0147068575025,0.047932498157,-0.0179814696312,-0.122227028012,0.121876083314,0.387963503599,1019.38000488,-50.9023895264,37.0900001526,0.0,0.0,-12.6052703857,-2.14062190056,-0.378722459078,0.718835711479,1.49755716324,-3.58192300797,3.90057015419,-0.0769375488162,0.0,0.0,0.0,10,1,0,20.0387706757,3.19657444954,,,,,,,,,,,,,,,,,,,,0.00289157987572,0.00503614265472,0.00801644660532,0.0,0,2,0,0.954417526722,0,1,0.0,-0.0,0.0,0.0371287129819,-1.0,0.776942372322,-0.998161792755,0.0,7,0,10.0,10.0,10.0,10.0,0.0,0.0,0.0,0.0,,,,-0.0222457237542,0.0765734612942,0.0600343607366,-5,12,0.717117130756,-1.49623739719,4.6859998703,43,77,,,,,,,,,,,,,,,,,,,,,,,,,,,,,,,,,11.5573329926,11.6299095154,-1.0,-1.0,,,,,,,,,,,,,,,,,,,,,,,,,,,,,,,,,,,,,,,,,,,,,,,,,,,,,,,,,,,,,,,,,,,,,,,,,,,,,,,,,,,,,,,,,,,,,,,,,,,,,,,443398379,PX4FMU_V1,251760679a4bed86fdb10746062fde2cc23e460f,test,305419904.0
0.00441318843514,-0.0145445708185,-2.24067664146,-0.0198041163385,0.0320763401687,-0.0195502899587,0.150478839874,-0.670027434826,-9.54130935669,0.0,0.0,-2.18109536171,0.0,0.150478839874,-0.670027434826,-9.54130935669,-0.0410553514957,0.0184124130756,-0.0113044157624,-0.109383709729,0.146010890603,0.388853609562,1019.41998291,-51.2337265015,37.0499992371,0.0,0.0,-12.6052703857,-2.14062190056,-0.37859493494,0.718835711479,1.49755716324,-3.58192300797,3.90057015419,-0.0770885199308,0.0,0.0,0.0,10,1,0,20.0387706757,3.19663405418,,,,,,,,,,,,,,,,,,,,-0.000293835269986,0.00528407935053,0.0118649117649,0.0,0,2,0,0.954417526722,0,1,0.0,-0.0,0.0,0.0346534661949,-1.0,0.776942372322,-0.998161792755,0.0,7,0,10.0,10.0,10.0,10.0,0.0,0.0,0.0,0.0,,,,-0.0220643877983,0.0727231055498,0.0595491193235,0,0,0.0,0.0,4.6859998703,0,77,,,,,,,,,,,,,,,,,,,,,,,,,,,,,,,,,11.5740947723,11.6298532486,-1.0,-1.0,,,,,,,,,,,,,,,,,,,,,,,,,,,,,,,,,,,,,,,,,,,,,,,,,,,,,,,,,,,,,,,,,,,,,,,,,,,,,,,,,,,,,,,,,,,,,,,,,,,,,,,443419571,PX4FMU_V1,251760679a4bed86fdb10746062fde2cc23e460f,test,305419904.0
0.00299806660041,-0.0141201354563,-2.24111652374,-0.0367587357759,0.0261135306209,0.00658193137497,-0.305519223213,0.487041354179,-9.83561515808,0.0,0.0,-2.18109536171,0.0,-0.305519223213,0.487041354179,-9.83561515808,-0.00430341577157,0.0358678139746,-0.0169770121574,-0.10296202451,0.121876083314,0.40131509304,1019.38995361,-50.9852256775,37.0499992371,0.0,0.0,-12.6052703857,-2.14062190056,-0.376810997725,0.718835711479,1.49755716324,-3.58192300797,3.90057015419,-0.0753782913089,0.0,0.0,0.0,10,1,0,20.0387706757,3.19675421715,,,,,,,,,,,,,,,,,,,,0.00283002154902,0.00578334275633,0.0080126915127,0.0,0,2,0,0.954417526722,0,1,0.0,-0.0,0.0,0.0371287129819,-1.0,0.776942372322,-0.998161792755,0.0,7,0,10.0,10.0,10.0,10.0,0.0,0.0,0.0,0.0,,,,-0.0149893378839,0.070600785315,0.059999871999,4,23,-0.665791928768,-3.43090605736,4.6859998703,0,77,,,,,,,,,,,,,,,,,,,,,,,,,,,,,,,,,11.5657138824,11.6297340393,-1.0,-1.0,,,,,,,,,,,,,,,,,,,,,,,,,,,,,,,,,,,,,,,,,,,,,,,,,,,,,,,,,,,,,,,,,,,,,,,,,,,,,,,,,,,,,,,,,,,,,,,,,,,,,,,443441368,PX4FMU_V1,251760679a4bed86fdb10746062fde2cc23e460f,test,305419904.0
0.00327586289495,-0.013563496992,-2.24087142944,0.00836370699108,0.0146219087765,-0.0178651176393,0.0620276220143,-0.603721141815,-9.5890789032,0.0,0.0,-2.18109536171,0.0,0.0620276220143,-0.603721141815,-9.5890789032,-0.0094848824665,-0.00126437749714,-0.0091074584052,-0.0965403690934,0.127701729536,0.395084351301,1019.41998291,-51.2337265015,37.0499992371,0.0,0.0,-12.6052703857,-2.14062190056,-0.376027047634,0.718835711479,1.49755716324,-3.58192300797,3.90057015419,-0.0753355920315,0.0,0.0,0.0,10,1,0,20.0387706757,3.1968755722,,,,,,,,,,,,,,,,,,,,-0.00321646104567,0.00691543752328,0.0116428369656,0.0,0,2,0,0.954417526722,0,1,0.0,-0.0,0.0,0.0371287129819,-1.0,0.776942372322,-0.998161792755,0.0,7,0,10.0,10.0,10.0,10.0,0.0,0.0,0.0,0.0,,,,-0.0163783021271,0.0678175836802,0.0597537979484,0,0,0.0,0.0,4.6859998703,0,77,,,,,,,,,,,,,,,,,,,,,,,,,,,,,,,,,11.5573329926,11.6295890808,-1.0,-1.0,,,,,,,,,,,,,,,,,,,,,,,,,,,,,,,,,,,,,,,,,,,,,,,,,,,,,,,,,,,,,,,,,,,,,,,,,,,,,,,,,,,,,,,,,,,,,,,,,,,,,,,443463173,PX4FMU_V1,251760679a4bed86fdb10746062fde2cc23e460f,test,305419904.0
0.00256242835894,-0.0137314079329,-2.24072241783,-0.0078862933442,-0.0050784163177,0.0151914432645,-0.358768641949,0.655788123608,-9.88348960876,0.0,0.0,-2.18109536171,0.0,-0.358768641949,0.655788123608,-9.88348960876,0.0223328582942,0.00668497057632,-0.0004477329785,-0.109383709729,0.125205025077,0.40131509304,1019.38000488,-50.9023895264,37.0499992371,0.0,0.0,-12.6052703857,-2.14062190056,-0.375420540571,0.718835711479,1.49755716324,-3.58192300797,3.90057015419,-0.0751644298434,0.0,0.0,0.0,10,1,0,20.0387706757,3.19699501991,,,,,,,,,,,,,,,,,,,,-0.000640255631879,0.00958561897278,0.00666270637885,0.0,0,2,0,0.954417526722,0,1,0.0,-0.0,0.0,0.0371287129819,-1.0,0.776942372322,-0.998161792755,0.0,7,0,10.0,10.0,10.0,10.0,0.0,0.0,0.0,0.0,,,,-0.0128113366663,0.0686571225524,0.0596094839275,0,0,0.0,0.0,4.6859998703,0,77,,,,,,,,,,,,,,,,,,,,,,,,,,,,,,,,,11.5657138824,11.6294612885,-1.0,-1.0,,,,,,,,,,,,,,,,,,,,,,,,,,,,,,,,,,,,,,,,,,,,,,,,,,,,,,,,,,,,,,,,,,,,,,,,,,,,,,,,,,,,,,,,,,,,,,,,,,,,,,,443485522,PX4FMU_V1,251760679a4bed86fdb10746062fde2cc23e460f,test,305419904.0
0.00337538309395,-0.0136714037508,-2.24095249176,0.0410245396197,-0.00875521730632,-0.0163885168731,0.100179493427,-0.708232104778,-9.64078140259,0.0,0.0,-2.18109536171,0.0,0.100179493427,-0.708232104778,-9.64078140259,0.0251298360527,-0.0171784106642,-0.00640661548823,-0.117640137672,0.124372787774,0.402205199003,1019.38000488,-50.9023895264,37.0499992371,0.0,0.0,-12.6052703857,-2.14062190056,-0.376171171665,0.718835711479,1.49755716324,-3.58192300797,3.90057015419,-0.0749911591411,0.0,0.0,0.0,10,1,0,20.0387706757,3.19711589813,,,,,,,,,,,,,,,,,,,,-0.00752705195919,0.0100246062502,0.0114333871752,0.0,0,2,0,0.954417526722,0,1,0.0,-0.0,0.0,0.0371287129819,-1.0,0.776942372322,-0.998161792755,0.0,7,0,10.0,10.0,10.0,10.0,0.0,0.0,0.0,0.0,,,,-0.0168758630753,0.0683571472764,0.0598340593278,-3,18,0.104947708547,-0.567804098129,0.300000011921,67,77,,,,,,,,,,,,,,,,,,,,,,,,,,,,,,,,,11.5573329926,11.62931633,-1.0,-1.0,,,,,,,,,,,,,,,,,,,,,,,,,,,,,,,,,,,,,,,,,,,,,,,,,,,,,,,,,,,,,,,,,,,,,,,,,,,,,,,,,,,,,,,,,,,,,,,,,,,,,,,443506374,PX4FMU_V1,251760679a4bed86fdb10746062fde2cc23e460f,test,305419904.0
0.0032515777275,-0.0141995660961,-2.24100828171,-0.00800743419677,-0.0311021395028,0.0207964591682,-0.34856235981,0.537299752235,-9.988904953,0.0,0.0,-2.18109536171,0.0,-0.34856235981,0.537299752235,-9.988904953,-0.0027208190877,-0.0248821433634,0.0218348912895,-0.122227028012,0.118547149003,0.404875546694,1019.44000244,-51.3993911743,37.0400009155,0.0,0.0,-12.6052703857,-2.14062190056,-0.37555757165,0.718835711479,1.49755716324,-3.58192300797,3.90057015419,-0.0733948871493,0.0,0.0,0.0,10,1,0,20.0387706757,3.19717550278,,,,,,,,,,,,,,,,,,,,-0.00107241747901,0.0132730128244,0.00586399994791,0.0,0,2,0,0.952834427357,0,1,0.0,-0.0,0.0,0.0371287129819,-1.0,0.776942372322,-0.998161792755,0.0,7,0,10.0,10.0,10.0,10.0,0.0,0.0,0.0,0.0,,,,-0.0162567999214,0.0709979683161,0.0598897896707,0,0,0.0,0.0,0.300000011921,0,77,,,,,,,,,,,,,,,,,,,,,,,,,,,,,,,,,11.5657138824,11.6292524338,-1.0,-1.0,,,,,,,,,,,,,,,,,,,,,,,,,,,,,,,,,,,,,,,,,,,,,,,,,,,,,,,,,,,,,,,,,,,,,,,,,,,,,,,,,,,,,,,,,,,,,,,,,,,,,,,443527531,PX4FMU_V1,251760679a4bed86fdb10746062fde2cc23e460f,test,305419904.0
0.00413680961356,-0.0144098214805,-2.23820972443,0.0444708801806,-0.00659449445084,-0.0197554863989,0.0839968323708,-0.753452301025,-9.75217151642,0.0,0.0,-2.18109536171,0.0,0.0839968323708,-0.753452301025,-9.75217151642,0.0314185656607,-0.00761054782197,-0.0138891376555,-0.0681015923619,0.160158902407,0.385293215513,1019.38995361,-50.9852256775,37.0400009155,0.0,0.0,-12.6052703857,-2.14062190056,-0.372480928898,0.718835711479,1.49755716324,-3.58192300797,3.90057015419,-0.0734206214547,0.0,0.0,0.0,10,1,0,20.0387706757,3.197296381,,,,,,,,,,,,,,,,,,,,-0.00846995413303,0.010223695077,0.0115260127932,0.0,0,2,0,0.952834427357,0,1,0.0,-0.0,0.0,0.0371287129819,-1.0,0.776942372322,-0.998161792755,0.0,7,0,10.0,10.0,10.0,10.0,0.0,0.0,0.0,0.0,,,,-0.020682618022,0.0720493197441,0.0570845939219,0,0,0.0,0.0,0.300000011921,0,77,,,,,,,,,,,,,,,,,,,,,,,,,,,,,,,,,11.5657138824,11.6291332245,-1.0,-1.0,,,,,,,,,,,,,,,,,,,,,,,,,,,,,,,,,,,,,,,,,,,,,,,,,,,,,,,,,,,,,,,,,,,,,,,,,,,,,,,,,,,,,,,,,,,,,,,,,,,,,,,443549727,PX4FMU_V1,251760679a4bed86fdb10746062fde2cc23e460f,test,305419904.0
0.00404249737039,-0.0148041164503,-2.24150037766,-0.0207368843257,-0.0221581403166,0.0193270035088,-0.38432648778,0.381256401539,-9.97760677338,0.0,0.0,-2.18109536171,0.0,-0.38432648778,0.381256401539,-9.97760677338,-0.0269554890692,-0.0188762526959,0.0255522057414,-0.130483448505,0.108560331166,0.403095304966,1019.38995361,-50.9852256775,37.0400009155,0.0,0.0,-12.6052703857,-2.14062190056,-0.372189760208,0.718835711479,1.49755716324,-3.58192300797,3.90057015419,-0.0715031772852,0.0,0.0,0.0,10,1,0,20.0387706757,3.19741654396,,,,,,,,,,,,,,,,,,,,6.83639882482e-05,0.0125032598153,0.00615722173825,0.0,0,2,0,0.952834427357,0,1,0.0,-0.0,0.0,0.0371287129819,-1.0,0.776942372322,-0.998161792755,0.0,7,0,10.0,10.0,10.0,10.0,0.0,0.0,0.0,0.0,,,,-0.0202110074461,0.0740207880735,0.0603751465678,0,0,0.0,0.0,0.300000011921,0,77,,,,,,,,,,,,,,,,,,,,,,,,,,,,,,,,,11.5740947723,11.6290149689,-1.0,-1.0,,,,,,,,,,,,,,,,,,,,,,,,,,,,,,,,,,,,,,,,,,,,,,,,,,,,,,,,,,,,,,,,,,,,,,,,,,,,,,,,,,,,,,,,,,,,,,,,,,,,,,,443570852,PX4FMU_V1,251760679a4bed86fdb10746062fde2cc23e460f,test,305419904.0
0.00424555502832,-0.0147317638621,-2.2416665554,0.0243443343788,0.016110830009,-0.0191372204572,-0.00667040701956,-0.358203947544,-9.77820491791,0.0,0.0,-2.18109536171,0.0,-0.00667040701956,-0.358203947544,-9.77820491791,0.0300467424095,0.0215564668179,-0.029913527891,-0.126813918352,0.131862893701,0.40042501688,1019.38995361,-50.9852256775,37.0400009155,0.0,0.0,-12.6052703857,-2.14062190056,-0.372904419899,0.718835711479,1.49755716324,-3.58192300797,3.90057015419,-0.073337495327,0.0,0.0,0.0,10,1,0,20.0387706757,3.19753742218,,,,,,,,,,,,,,,,,,,,-0.00592417409644,0.00748126627877,0.0119515629485,0.0,0,2,0,0.952834427357,0,1,0.0,-0.0,0.0,0.0346534661949,-0.99816006422,0.776942372322,-0.998161792755,0.0,7,0,10.0,10.0,10.0,10.0,0.0,0.0,0.0,0.0,,,,-0.0212262365967,0.0736590325832,0.0605398602784,0,0,0.0,0.0,0.300000011921,0,77,,,,,,,,,,,,,,,,,,,,,,,,,,,,,,,,,11.5657138824,11.6288890839,-1.0,-1.0,,,,,,,,,,,,,,,,,,,,,,,,,,,,,,,,,,,,,,,,,,,,,,,,,,,,,,,,,,,,,,,,,,,,,,,,,,,,,,,,,,,,,,,,,,,,,,,,,,,,,,,443592226,PX4FMU_V1,251760679a4bed86fdb10746062fde2cc23e460f,test,305419904.0
0.00398682663217,-0.0146337989718,-2.23958134651,-0.040831066668,-0.00390812242404,0.0202409606427,-0.299655973911,0.316656172276,-9.92683601379,0.0,0.0,-2.18109536171,0.0,-0.299655973911,0.316656172276,-9.92683601379,-0.0479426756501,-0.00679113809019,0.0303748808801,-0.0873665586114,0.173474654555,0.394194245338,1019.39996338,-51.0680618286,37.0400009155,0.0,0.0,-12.6052703857,-2.14062190056,-0.372431159019,0.718835711479,1.49755716324,-3.58192300797,3.90057015419,-0.071614317596,0.0,0.0,0.0,10,1,0,20.0387706757,3.19765877724,,,,,,,,,,,,,,,,,,,,0.00271678739227,0.0100200502202,0.00573237240314,0.0,0,2,0,0.952834427357,0,1,0.0,-0.0,0.0,0.0371287129819,-1.0,0.776942372322,-0.998161792755,0.0,7,0,10.0,10.0,10.0,10.0,0.0,0.0,0.0,0.0,,,,-0.0199327021837,0.0731691941619,0.0584567785263,0,0,0.0,0.0,0.300000011921,0,77,,,,,,,,,,,,,,,,,,,,,,,,,,,,,,,,,11.5657138824,11.6287717819,-1.0,-1.0,,,,,,,,,,,,,,,,,,,,,,,,,,,,,,,,,,,,,,,,,,,,,,,,,,,,,,,,,,,,,,,,,,,,,,,,,,,,,,,,,,,,,,,,,,,,,,,,,,,,,,,443614375,PX4FMU_V1,251760679a4bed86fdb10746062fde2cc23e460f,test,305419904.0
0.00379849108867,-0.0144874285907,-2.24279618263,0.0145466271788,0.0182684063911,-0.0179618857801,-0.0187973640859,-0.184984713793,-9.64758491516,0.0,0.0,-2.18109536171,0.0,-0.0187973640859,-0.184984713793,-9.64758491516,0.0331257581711,0.0230223294348,-0.0310327839106,-0.133235603571,0.098573513329,0.396864563227,1019.38995361,-50.9852256775,37.0400009155,0.0,0.0,-12.6052703857,-2.14062190056,-0.371800363064,0.718835711479,1.49755716324,-3.58192300797,3.90057015419,-0.0736407116055,0.0,0.0,0.0,10,1,0,20.0387706757,3.19771790504,,,,,,,,,,,,,,,,,,,,-0.0043599079363,0.00704195722938,0.011945287697,0.0,0,2,0,0.952834427357,0,1,0.0,-0.0,0.0,0.0371287129819,-1.0,0.776942372322,-0.998161792755,0.0,7,0,10.0,10.0,10.0,10.0,0.0,0.0,0.0,0.0,,,,-0.0189911238849,0.0724373087287,0.0616733580828,0,0,0.0,0.0,0.300000011921,0,77,,,,,,,,,,,,,,,,,,,,,,,,,,,,,,,,,11.5657138824,11.6287088394,-1.0,-1.0,,,,,,,,,,,,,,,,,,,,,,,,,,,,,,,,,,,,,,,,,,,,,,,,,,,,,,,,,,,,,,,,,,,,,,,,,,,,,,,,,,,,,,,,,,,,,,,,,,,,,,,443635584,PX4FMU_V1,251760679a4bed86fdb10746062fde2cc23e460f,test,305419904.0
0.00373333506286,-0.0143613824621,-2.24453759193,-0.0355024561286,-0.00782310217619,0.0139608830214,-0.259197175503,0.221135497093,-9.8769903183,0.0,0.0,-2.18109536171,0.0,-0.259197175503,0.221135497093,-9.8769903183,-0.0521415174007,-0.0139622669667,0.0234708860517,-0.104796789587,0.0869222208858,0.403985440731,1019.38995361,-50.9852256775,37.0400009155,0.0,0.0,-12.6052703857,-2.14062190056,-0.371516525745,0.718835711479,1.49755716324,-3.58192300797,3.90057015419,-0.0706947371364,0.0,0.0,0.0,10,1,0,20.0387706757,3.19783854485,,,,,,,,,,,,,,,,,,,,0.00218881876208,0.010351922363,0.00741818686947,0.0,0,2,0,0.952834427357,0,1,0.0,-0.0,0.0,0.0371287129819,-1.0,0.776942372322,-0.998161792755,0.0,7,0,10.0,10.0,10.0,10.0,0.0,0.0,0.0,0.0,,,,-0.0186653882265,0.0718070715666,0.0634154602885,12,9,-0.313515752554,-0.235540494323,0.300000011921,43,77,,,,,,,,,,,,,,,,,,,,,,,,,,,,,,,,,11.5657138824,11.6285829544,-1.0,-1.0,,,,,,,,,,,,,,,,,,,,,,,,,,,,,,,,,,,,,,,,,,,,,,,,,,,,,,,,,,,,,,,,,,,,,,,,,,,,,,,,,,,,,,,,,,,,,,,,,,,,,,,443658101,PX4FMU_V1,251760679a4bed86fdb10746062fde2cc23e460f,test,305419904.0
0.0034337581601,-0.0143703781068,-2.23989701271,0.014356999658,0.0103150829673,-0.0142219830304,-0.0374645292759,0.0472120866179,-9.78284645081,0.0,0.0,-2.18109536171,0.0,-0.0374645292759,0.0472120866179,-9.78284645081,0.0392530970275,0.0187594462186,-0.030195094645,-0.111218452454,0.16681677103,0.39063385129,1019.38000488,-50.9023895264,37.0400009155,0.0,0.0,-12.6052703857,-2.14062190056,-0.3692253232,0.718835711479,1.49755716324,-3.58192300797,3.90057015419,-0.0715545490384,0.0,0.0,0.0,10,1,0,20.0387706757,3.19795870781,,,,,,,,,,,,,,,,,,,,-0.00409819884226,0.00799980293959,0.0109498323873,0.0,0,2,0,0.952834427357,0,1,0.0,-0.0,0.0,0.0371287129819,-1.0,0.776942372322,-0.998161792755,0.0,7,0,10.0,10.0,10.0,10.0,0.0,0.0,0.0,0.0,,,,-0.0171676054597,0.0718520283699,0.0587769001722,0,0,0.0,0.0,0.300000011921,0,77,,,,,,,,,,,,,,,,,,,,,,,,,,,,,,,,,11.5657138824,11.6284656525,-1.0,-1.0,,,,,,,,,,,,,,,,,,,,,,,,,,,,,,,,,,,,,,,,,,,,,,,,,,,,,,,,,,,,,,,,,,,,,,,,,,,,,,,,,,,,,,,,,,,,,,,,,,,,,,,443678787,PX4FMU_V1,251760679a4bed86fdb10746062fde2cc23e460f,test,305419904.0
0.00386964553036,-0.0142592471093,-2.2430460453,-0.00191882869694,-0.00938765238971,0.00770697183907,0.0196842737496,-0.270154774189,-9.74776363373,0.0,0.0,-2.18109536171,0.0,0.0196842737496,-0.270154774189,-9.74776363373,-0.0302754752338,-0.024383103475,0.0204547159374,-0.0836970582604,0.11521820724,0.402205199003,1019.38000488,-50.9023895264,37.0400009155,0.0,0.0,-12.6052703857,-2.14062190056,-0.369924366474,0.718835711479,1.49755716324,-3.58192300797,3.90057015419,-0.069051861763,0.0,0.0,0.0,10,1,0,20.0387706757,3.19807910919,,,,,,,,,,,,,,,,,,,,-0.0022656514775,0.0104889273643,0.0081323934719,0.0,0,2,0,0.952834427357,0,1,0.0,-0.0,0.0,0.0371287129819,-1.0,0.776942372322,-0.998161792755,0.0,7,0,10.0,10.0,10.0,10.0,0.0,0.0,0.0,0.0,,,,-0.0193469170481,0.0712964087725,0.0619229227304,0,0,0.0,0.0,0.300000011921,0,77,,,,,,,,,,,,,,,,,,,,,,,,,,,,,,,,,11.5657138824,11.6283483505,-1.0,-1.0,,,,,,,,,,,,,,,,,,,,,,,,,,,,,,,,,,,,,,,,,,,,,,,,,,,,,,,,,,,,,,,,,,,,,,,,,,,,,,,,,,,,,,,,,,,,,,,,,,,,,,,443700268,PX4FMU_V1,251760679a4bed86fdb10746062fde2cc23e460f,test,305419904.0
0.00358124938793,-0.0145465089008,-2.24089574814,0.0170970708132,0.00160246458836,-0.011452796869,-0.229968339205,0.0896662995219,-9.79254817963,0.0,0.0,-2.18109536171,0.0,-0.229968339205,0.0896662995219,-9.79254817963,0.0397441610694,0.0138517813757,-0.0282529834658,-0.117640137672,0.135191857815,0.387963503599,1019.40997314,-51.150894165,37.0400009155,0.0,0.0,-12.6052703857,-2.14062190056,-0.369120717049,0.718835711479,1.49755716324,-3.58192300797,3.90057015419,-0.0708513855934,0.0,0.0,0.0,10,1,0,20.0387706757,3.19819903374,,,,,,,,,,,,,,,,,,,,-0.00455026747659,0.00924692861736,0.0106840617955,0.0,0,2,0,0.952834427357,0,1,0.0,-0.0,0.0,0.0247524753213,-1.0,0.776942372322,-0.998161792755,0.0,7,0,10.0,10.0,10.0,10.0,0.0,0.0,0.0,0.0,,,,-0.0179049894214,0.0727326869965,0.0597742795944,0,0,0.0,0.0,0.300000011921,0,77,,,,,,,,,,,,,,,,,,,,,,,,,,,,,,,,,11.5657138824,11.6282224655,-1.0,-1.0,,,,,,,,,,,,,,,,,,,,,,,,,,,,,,,,,,,,,,,,,,,,,,,,,,,,,,,,,,,,,,,,,,,,,,,,,,,,,,,,,,,,,,,,,,,,,,,,,,,,,,,443722272,PX4FMU_V1,251760679a4bed86fdb10746062fde2cc23e460f,test,305419904.0
0.00408329907805,-0.0143541041762,-2.24032187462,-0.00100809638388,-0.00155649101362,0.00278715603054,0.06816945225,-0.409024119377,-9.64552497864,0.0,0.0,-2.18109536171,0.0,0.06816945225,-0.409024119377,-9.64552497864,-0.0340843126178,-0.0153481569141,0.0202289074659,-0.116722755134,0.153501003981,0.382622867823,1019.39996338,-51.0680618286,37.0400009155,0.0,0.0,-12.6052703857,-2.14062190056,-0.369653582573,0.718835711479,1.49755716324,-3.58192300797,3.90057015419,-0.0709007307887,0.0,0.0,0.0,10,1,0,20.0387706757,3.1982588768,,,,,,,,,,,,,,,,,,,,-0.00252290954813,0.00953253637999,0.00846149493009,0.0,0,2,0,0.952111542225,0,1,0.0,-0.0,0.0,0.0247524753213,-1.0,0.776942372322,-0.998161792755,0.0,7,0,10.0,10.0,10.0,10.0,0.0,0.0,0.0,0.0,,,,-0.0204150937498,0.0717707127333,0.0591971203685,0,0,0.0,0.0,0.300000011921,0,77,,,,,,,,,,,,,,,,,,,,,,,,,,,,,,,,,11.5740947723,11.6281681061,-1.0,-1.0,,,,,,,,,,,,,,,,,,,,,,,,,,,,,,,,,,,,,,,,,,,,,,,,,,,,,,,,,,,,,,,,,,,,,,,,,,,,,,,,,,,,,,,,,,,,,,,,,,,,,,,443743453,PX4FMU_V1,251760679a4bed86fdb10746062fde2cc23e460f,test,305419904.0
0.00349617516622,-0.0146175157279,-2.23855495453,-0.0126045159996,-0.00137609115336,0.00382871832699,-0.444808512926,0.444650292397,-9.80677223206,0.0,0.0,-2.18109536171,0.0,-0.444808512926,0.444650292397,-9.80677223206,0.0124825052917,0.0135804116726,-0.0129377357662,-0.109383709729,0.170977935195,0.380842655897,1019.39996338,-51.0680618286,37.0400009155,0.0,0.0,-12.6052703857,-2.14062190056,-0.369021564722,0.718835711479,1.49755716324,-3.58192300797,3.90057015419,-0.0706746056676,0.0,0.0,0.0,10,1,0,20.0387706757,3.19837975502,,,,,,,,,,,,,,,,,,,,-0.000633765070233,0.00968029536307,0.00804078858346,0.0,0,2,0,0.952111542225,0,1,0.0,-0.0,0.0,0.0247524753213,-1.0,0.776942372322,-0.998161792755,0.0,7,0,10.0,10.0,10.0,10.0,0.0,0.0,0.0,0.0,,,,-0.0174796320498,0.0730877220631,0.0574339739978,0,0,0.0,0.0,0.300000011921,0,77,,,,,,,,,,,,,,,,,,,,,,,,,,,,,,,,,11.5657138824,11.6280517578,-1.0,-1.0,,,,,,,,,,,,,,,,,,,,,,,,,,,,,,,,,,,,,,,,,,,,,,,,,,,,,,,,,,,,,,,,,,,,,,,,,,,,,,,,,,,,,,,,,,,,,,,,,,,,,,,443764576,PX4FMU_V1,251760679a4bed86fdb10746062fde2cc23e460f,test,305419904.0
0.00394894462079,-0.0141838854179,-2.23882818222,0.00160656683147,0.00821737293154,0.00174238393083,0.172848090529,-0.477310538292,-9.54066371918,0.0,0.0,-2.18109536171,0.0,0.172848090529,-0.477310538292,-9.54066371918,-0.0242761448026,-0.0087707657367,0.0156990997493,-0.0919534787536,0.140185251832,0.405765652657,1019.39996338,-51.0680618286,37.0400009155,0.0,0.0,-12.6052703857,-2.14062190056,-0.365725815296,0.718835711479,1.49755716324,-3.58192300797,3.90057015419,-0.0689820200205,0.0,0.0,0.0,10,1,0,20.0387706757,3.19850087166,,,,,,,,,,,,,,,,,,,,-0.0027754958719,0.00815129000694,0.00839436426759,0.0,0,2,0,0.952111542225,0,1,0.0,-0.0,0.0,0.0247524753213,-1.0,0.776942372322,-0.998161792755,0.0,7,0,10.0,10.0,10.0,10.0,0.0,0.0,0.0,0.0,,,,-0.0197434015572,0.0709196031094,0.0577048137784,0,0,0.0,0.0,0.300000011921,0,77,,,,,,,,,,,,,,,,,,,,,,,,,,,,,,,,,11.5573329926,11.627910614,-1.0,-1.0,,,,,,,,,,,,,,,,,,,,,,,,,,,,,,,,,,,,,,,,,,,,,,,,,,,,,,,,,,,,,,,,,,,,,,,,,,,,,,,,,,,,,,,,,,,,,,,,,,,,,,,443786812,PX4FMU_V1,251760679a4bed86fdb10746062fde2cc23e460f,test,305419904.0
0.00341904396191,-0.0145170679316,-2.23926568031,-0.00810619536787,-0.0127155939117,0.00228668889031,-0.431745141745,0.593555450439,-9.90249538422,0.0,0.0,-2.18109536171,0.0,-0.431745141745,0.593555450439,-9.90249538422,0.0196045152843,-0.00266112945974,-0.00897579733282,-0.114887982607,0.151836544275,0.379952549934,1019.38995361,-50.9852256775,37.0400009155,0.0,0.0,-12.6052703857,-2.14062190056,-0.36492523551,0.718835711479,1.49755716324,-3.58192300797,3.90057015419,-0.0689845308661,0.0,0.0,0.0,10,1,0,20.0387706757,3.19862103462,,,,,,,,,,,,,,,,,,,,-0.00116841692943,0.0110891405493,0.00837882235646,0.0,0,2,0,0.952111542225,0,1,0.0,-0.0,0.0,0.0272277221084,-1.0,0.776942372322,-0.998161792755,0.0,7,0,10.0,10.0,10.0,10.0,0.0,0.0,0.0,0.0,,,,-0.0170940179378,0.0725854933262,0.0581455007195,-2,-4,0.0291756670922,0.0578617975116,0.300000011921,43,77,,,,,,,,,,,,,,,,,,,,,,,,,,,,,,,,,11.5657138824,11.6277952194,-1.0,-1.0,,,,,,,,,,,,,,,,,,,,,,,,,,,,,,,,,,,,,,,,,,,,,,,,,,,,,,,,,,,,,,,,,,,,,,,,,,,,,,,,,,,,,,,,,,,,,,,,,,,,,,,443808081,PX4FMU_V1,251760679a4bed86fdb10746062fde2cc23e460f,test,305419904.0
0.00411352561787,-0.0143243363127,-2.23912143707,0.0160235203803,0.00377468648367,0.00044141660328,0.203178346157,-0.607432723045,-9.62698364258,0.0,0.0,-2.18109536171,0.0,0.203178346157,-0.607432723045,-9.62698364258,-0.00965263042599,-0.00522235454991,0.0140672819689,-0.0928708612919,0.131030678749,0.406655758619,1019.40997314,-51.150894165,37.0299987793,0.0,0.0,-12.6052703857,-2.14062190056,-0.363648504019,0.718835711479,1.49755716324,-3.58192300797,3.90057015419,-0.067645214498,0.0,0.0,0.0,10,1,0,20.0387706757,3.19874072075,,,,,,,,,,,,,,,,,,,,-0.00475666578859,0.00882013421506,0.00863327551633,0.0,0,2,0,0.952111542225,0,1,0.0,-0.0,0.0,0.0272277221084,-1.0,0.776942372322,-0.998161792755,0.0,7,0,10.0,10.0,10.0,10.0,0.0,0.0,0.0,0.0,,,,-0.0205662176013,0.0716218799353,0.0579965859652,0,0,0.0,0.0,0.300000011921,0,77,,,,,,,,,,,,,,,,,,,,,,,,,,,,,,,,,11.5657138824,11.6276712418,-1.0,-1.0,,,,,,,,,,,,,,,,,,,,,,,,,,,,,,,,,,,,,,,,,,,,,,,,,,,,,,,,,,,,,,,,,,,,,,,,,,,,,,,,,,,,,,,,,,,,,,,,,,,,,,,443830539,PX4FMU_V1,251760679a4bed86fdb10746062fde2cc23e460f,test,305419904.0
0.00368569674902,-0.0147063145414,-2.23956775665,-0.0114963874221,-0.0190154500306,0.00335425930098,-0.440986245871,0.525784134865,-10.052280426,0.0,0.0,-2.18109536171,0.0,-0.440986245871,0.525784134865,-10.052280426,0.00919177941978,-0.0127886664122,-0.00646777730435,-0.113970600069,0.137688547373,0.378172367811,1019.36999512,-50.8195533752,37.0299987793,0.0,0.0,-12.6052703857,-2.14062190056,-0.363493531942,0.718835711479,1.49755716324,-3.58192300797,3.90057015419,-0.0674610882998,0.0,0.0,0.0,10,1,0,20.0387706757,3.19880127907,,,,,,,,,,,,,,,,,,,,-0.000901000865269,0.0120311370119,0.0082636680454,0.0,0,2,0,0.952111542225,0,1,0.0,-0.0,0.0,0.0247524753213,-1.0,0.776942372322,-0.998161792755,0.0,7,0,10.0,10.0,10.0,10.0,0.0,0.0,0.0,0.0,,,,-0.0184271633625,0.0735317543149,0.058445379138,0,0,0.0,0.0,0.300000011921,0,77,,,,,,,,,,,,,,,,,,,,,,,,,,,,,,,,,11.5657138824,11.6276092529,-1.0,-1.0,,,,,,,,,,,,,,,,,,,,,,,,,,,,,,,,,,,,,,,,,,,,,,,,,,,,,,,,,,,,,,,,,,,,,,,,,,,,,,,,,,,,,,,,,,,,,,,,,,,,,,,443851294,PX4FMU_V1,251760679a4bed86fdb10746062fde2cc23e460f,test,305419904.0
0.00427588820457,-0.0145701356232,-2.23819637299,0.0277723930776,0.0105648245662,-0.00440148729831,0.163835182786,-0.703299462795,-9.68333053589,0.0,0.0,-2.18109536171,0.0,0.163835182786,-0.703299462795,-9.68333053589,0.0158850625157,0.00892547238618,0.00965789426118,-0.0873665586114,0.136024072766,0.403985440731,1019.41998291,-51.2337265015,37.0299987793,0.0,0.0,-12.6052703857,-2.14062190056,-0.365225732327,0.718835711479,1.49755716324,-3.58192300797,3.90057015419,-0.0700842663646,0.0,0.0,0.0,10,1,0,20.0387706757,3.19892120361,,,,,,,,,,,,,,,,,,,,-0.00638954201713,0.00809719134122,0.0092207044363,0.0,0,2,0,0.952111542225,0,1,0.0,-0.0,0.0,0.0247524753213,-1.0,0.779448628426,-0.998161792755,0.0,7,0,10.0,10.0,10.0,10.0,0.0,0.0,0.0,0.0,,,,-0.0213779304177,0.0728509128094,0.0570698752999,0,0,0.0,0.0,0.300000011921,0,77,,,,,,,,,,,,,,,,,,,,,,,,,,,,,,,,,11.5573329926,11.6274766922,-1.0,-1.0,,,,,,,,,,,,,,,,,,,,,,,,,,,,,,,,,,,,,,,,,,,,,,,,,,,,,,,,,,,,,,,,,,,,,,,,,,,,,,,,,,,,,,,,,,,,,,,,,,,,,,,443872645,PX4FMU_V1,251760679a4bed86fdb10746062fde2cc23e460f,test,305419904.0
0.00392637494951,-0.0148840472102,-2.23772025108,-0.0160322524607,-0.0163518860936,0.00413008918986,-0.481965482235,0.454999595881,-9.9449338913,0.0,0.0,-2.18109536171,0.0,-0.481965482235,0.454999595881,-9.9449338913,-0.000407539657317,-0.0111672664061,-0.0003421579313,-0.0919534787536,0.155997723341,0.389743715525,1019.39996338,-51.0680618286,37.0299987793,0.0,0.0,-12.6052703857,-2.14062190056,-0.362622350454,0.718835711479,1.49755716324,-3.58192300797,3.90057015419,-0.0680124685168,0.0,0.0,0.0,10,1,0,20.0387706757,3.19904112816,,,,,,,,,,,,,,,,,,,,-0.000467763340566,0.0118004009128,0.00786983314902,0.0,0,2,0,0.952111542225,0,1,0.0,-0.0,0.0,0.0247524753213,-1.0,0.776942372322,-0.998161792755,0.0,7,0,10.0,10.0,10.0,10.0,0.0,0.0,0.0,0.0,,,,-0.0196304321289,0.0744204297662,0.0565956383944,0,0,0.0,0.0,0.300000011921,0,77,,,,,,,,,,,,,,,,,,,,,,,,,,,,,,,,,11.5657138824,11.6273527145,-1.0,-1.0,,,,,,,,,,,,,,,,,,,,,,,,,,,,,,,,,,,,,,,,,,,,,,,,,,,,,,,,,,,,,,,,,,,,,,,,,,,,,,,,,,,,,,,,,,,,,,,,,,,,,,,443894442,PX4FMU_V1,251760679a4bed86fdb10746062fde2cc23e460f,test,305419904.0
0.0043549654074,-0.0147151621059,-2.23744773865,0.0231260843575,0.0175826475024,-0.00786147732288,0.0950877517462,-0.645888924599,-9.63286972046,0.0,0.0,-2.18109536171,0.0,0.0950877517462,-0.645888924599,-9.63286972046,0.0160780996084,0.0210011005402,0.00397146912292,-0.0983751341701,0.165152296424,0.387963503599,1019.39996338,-51.0680618286,37.0299987793,0.0,0.0,-12.6052703857,-2.14062190056,-0.361365377903,0.718835711479,1.49755716324,-3.58192300797,3.90057015419,-0.0685253441334,0.0,0.0,0.0,10,1,0,20.0387706757,3.1991622448,,,,,,,,,,,,,,,,,,,,-0.00583691475913,0.00727914273739,0.00962728541344,0.0,0,2,0,0.952111542225,0,1,0.0,-0.0,0.0,0.0247524753213,-1.0,0.776942372322,-0.998161792755,0.0,7,0,10.0,10.0,10.0,10.0,0.0,0.0,0.0,0.0,,,,-0.0217732600868,0.0735760554671,0.0563204213977,0,0,0.0,0.0,0.300000011921,0,77,,,,,,,,,,,,,,,,,,,,,,,,,,,,,,,,,11.5657138824,11.6272287369,-1.0,-1.0,,,,,,,,,,,,,,,,,,,,,,,,,,,,,,,,,,,,,,,,,,,,,,,,,,,,,,,,,,,,,,,,,,,,,,,,,,,,,,,,,,,,,,,,,,,,,,,,,,,,,,,443915838,PX4FMU_V1,251760679a4bed86fdb10746062fde2cc23e460f,test,305419904.0
0.00395447481424,-0.0147989885882,-2.23648500443,-0.0251850802451,-0.0113841975108,0.00253369263373,-0.419379413128,0.44062897563,-9.94974040985,0.0,0.0,-2.18109536171,0.0,-0.419379413128,0.44062897563,-9.94974040985,-0.0155483931303,-0.0117077725008,-0.00271140923724,-0.0882839411497,0.16931347549,0.399534910917,1019.40997314,-51.150894165,37.0299987793,0.0,0.0,-12.6052703857,-2.14062190056,-0.358400225639,0.718835711479,1.49755716324,-3.58192300797,3.90057015419,-0.0671385377645,0.0,0.0,0.0,10,1,0,20.0387706757,3.19928336143,,,,,,,,,,,,,,,,,,,,0.000703839061316,0.0110993115231,0.00792399700731,0.0,0,2,0,0.952111542225,0,1,0.0,-0.0,0.0,0.0272277221084,-1.0,0.776942372322,-0.998161792755,0.0,7,0,10.0,10.0,10.0,10.0,0.0,0.0,0.0,0.0,,,,-0.0197709333152,0.073995128274,0.0553603358567,-9,0,0.113681390882,-0.00309146242216,0.300000011921,59,77,,,,,,,,,,,,,,,,,,,,,,,,,,,,,,,,,11.5740947723,11.6271133423,-1.0,-1.0,,,,,,,,,,,,,,,,,,,,,,,,,,,,,,,,,,,,,,,,,,,,,,,,,,,,,,,,,,,,,,,,,,,,,,,,,,,,,,,,,,,,,,,,,,,,,,,,,,,,,,,443938888,PX4FMU_V1,251760679a4bed86fdb10746062fde2cc23e460f,test,305419904.0
0.00415182393044,-0.0146365556866,-2.23868775368,0.017475605011,0.0207839403301,-0.00700333574787,0.0773617178202,-0.539034962654,-9.69551753998,0.0,0.0,-2.18109536171,0.0,0.0773617178202,-0.539034962654,-9.69551753998,0.0191143620759,0.0281639005989,0.00232005538419,-0.100209906697,0.0910833999515,0.391523957253,1019.40997314,-51.150894165,37.0299987793,0.0,0.0,-12.6052703857,-2.14062190056,-0.357311666012,0.718835711479,1.49755716324,-3.58192300797,3.90057015419,-0.0677426457405,0.0,0.0,0.0,10,1,0,20.0387706757,3.19934177399,,,,,,,,,,,,,,,,,,,,-0.00497032096609,0.00681187678128,0.00968481972814,0.0,0,2,0,0.95140838623,0,1,0.0,-0.0,0.0,0.0272277221084,-1.0,0.776942372322,-0.998161792755,0.0,7,0,10.0,10.0,10.0,10.0,0.0,0.0,0.0,0.0,,,,-0.0207576341927,0.0731829926372,0.0575621277094,0,0,0.0,0.0,0.300000011921,0,77,,,,,,,,,,,,,,,,,,,,,,,,,,,,,,,,,11.5740947723,11.6270599365,-1.0,-1.0,,,,,,,,,,,,,,,,,,,,,,,,,,,,,,,,,,,,,,,,,,,,,,,,,,,,,,,,,,,,,,,,,,,,,,,,,,,,,,,,,,,,,,,,,,,,,,,,,,,,,,,443960385,PX4FMU_V1,251760679a4bed86fdb10746062fde2cc23e460f,test,305419904.0
0.00373578956351,-0.0145932678133,-2.24036693573,-0.0313873067498,-0.0125904297456,-0.000905274413526,-0.386518776417,0.370610773563,-9.90087509155,0.0,0.0,-2.18109536171,0.0,-0.386518776417,0.370610773563,-9.90087509155,-0.0256112590432,-0.0170455034822,-0.00898062065244,-0.120392255485,0.138520792127,0.383513003588,1019.42999268,-51.3165588379,37.0099983215,0.0,0.0,-12.6052703857,-2.14062190056,-0.355058044195,0.718835711479,1.49755716324,-3.58192300797,3.90057015419,-0.0648864209652,0.0,0.0,0.0,10,1,0,20.0387706757,3.19946241379,,,,,,,,,,,,,,,,,,,,0.00165225914679,0.0111224036664,0.00902244914323,0.0,0,2,0,0.95140838623,0,1,0.0,-0.0,0.0,0.0247524753213,-1.0,0.776942372322,-0.998161792755,0.0,7,0,10.0,10.0,10.0,10.0,0.0,0.0,0.0,0.0,,,,-0.0186776202172,0.0729665234685,0.0592443831265,10,13,-0.131912127137,-0.160067826509,0.300000011921,0,77,,,,,,,,,,,,,,,,,,,,,,,,,,,,,,,,,11.5657138824,11.6269292831,-1.0,-1.0,,,,,,,,,,,,,,,,,,,,,,,,,,,,,,,,,,,,,,,,,,,,,,,,,,,,,,,,,,,,,,,,,,,,,,,,,,,,,,,,,,,,,,,,,,,,,,,,,,,,,,,443982800,PX4FMU_V1,251760679a4bed86fdb10746062fde2cc23e460f,test,305419904.0
0.00380294863135,-0.014426576905,-2.23923254013,0.0162566527724,0.02455320023,-0.00423188880086,0.0231981053948,-0.407433778048,-9.78912353516,0.0,0.0,-2.18109536171,0.0,0.0231981053948,-0.407433778048,-9.78912353516,0.0228969808668,0.0366390496492,0.00846960768104,-0.0772753953934,0.100237980485,0.394194245338,1019.39996338,-51.0680618286,37.0099983215,0.0,0.0,-12.6052703857,-2.14062190056,-0.352828264236,0.718835711479,1.49755716324,-3.58192300797,3.90057015419,-0.0658723190427,0.0,0.0,0.0,10,1,0,20.0387706757,3.19958281517,,,,,,,,,,,,,,,,,,,,-0.00458511011675,0.00618538167328,0.0093512441963,0.0,0,2,0,0.95140838623,0,1,0.0,-0.0,0.0,0.0272277221084,-1.0,0.776942372322,-0.998161792755,0.0,7,0,10.0,10.0,10.0,10.0,0.0,0.0,0.0,0.0,,,,-0.0190134253353,0.07213306427,0.0581097342074,21,-13,-0.134405165911,0.0826721042395,0.300000011921,43,77,,,,,,,,,,,,,,,,,,,,,,,,,,,,,,,,,11.5657138824,11.6267986298,-1.0,-1.0,,,,,,,,,,,,,,,,,,,,,,,,,,,,,,,,,,,,,,,,,,,,,,,,,,,,,,,,,,,,,,,,,,,,,,,,,,,,,,,,,,,,,,,,,,,,,,,,,,,,,,,444003529,PX4FMU_V1,251760679a4bed86fdb10746062fde2cc23e460f,test,305419904.0
0.003598152427,-0.0141677632928,-2.23986315727,-0.0329048931599,-0.00449595227838,0.00664390390739,-0.0405069030821,0.0962231829762,-9.84947967529,0.0,0.0,-2.18109536171,0.0,-0.0405069030821,0.0962231829762,-9.84947967529,-0.047745551914,-0.0180509705096,-0.00522290775552,-0.124061793089,0.180132523179,0.396864563227,1019.39996338,-51.0680618286,37.0099983215,0.0,0.0,-12.6052703857,-2.14062190056,-0.351585298777,0.718835711479,1.49755716324,-3.58192300797,3.90057015419,-0.0636546760798,0.0,0.0,0.0,10,1,0,20.0387706757,3.19970345497,,,,,,,,,,,,,,,,,,,,0.00193899380974,0.00979353953153,0.00781475473195,0.0,0,2,0,0.95140838623,0,1,0.0,-0.0,0.0,0.0272277221084,-1.0,0.776942372322,-0.998161792755,0.0,7,0,10.0,10.0,10.0,10.0,0.0,0.0,0.0,0.0,,,,-0.0179895553738,0.0708389654756,0.058742262423,0,0,0.0,0.0,0.300000011921,0,77,,,,,,,,,,,,,,,,,,,,,,,,,,,,,,,,,11.5657138824,11.6266765594,-1.0,-1.0,,,,,,,,,,,,,,,,,,,,,,,,,,,,,,,,,,,,,,,,,,,,,,,,,,,,,,,,,,,,,,,,,,,,,,,,,,,,,,,,,,,,,,,,,,,,,,,,,,,,,,,444025126,PX4FMU_V1,251760679a4bed86fdb10746062fde2cc23e460f,test,305419904.0
0.0033608567901,-0.0141013432294,-2.23940992355,0.0127777876332,0.0224191732705,-0.0107828620821,-0.010189765133,-0.268641412258,-9.86078453064,0.0,0.0,-2.18109536171,0.0,-0.010189765133,-0.268641412258,-9.86078453064,0.0222005099058,0.0343211069703,0.000512239988893,-0.118557490408,0.139353007078,0.389743715525,1019.38995361,-50.9852256775,37.0200004578,0.0,0.0,-12.6052703857,-2.14062190056,-0.350707262754,0.718835711479,1.49755716324,-3.58192300797,3.90057015419,-0.0656320974231,0.0,0.0,0.0,10,1,0,20.0387706757,3.19982266426,,,,,,,,,,,,,,,,,,,,-0.00384552404284,0.00625139754266,0.0103610521182,0.0,0,2,0,0.95140838623,0,1,0.0,-0.0,0.0,0.0272277221084,-1.0,0.776942372322,-0.998161792755,0.0,7,0,10.0,10.0,10.0,10.0,0.0,0.0,0.0,0.0,,,,-0.0168031677604,0.0705068483949,0.0582908168435,0,0,0.0,0.0,0.300000011921,0,77,,,,,,,,,,,,,,,,,,,,,,,,,,,,,,,,,11.5657138824,11.6265544891,-1.0,-1.0,,,,,,,,,,,,,,,,,,,,,,,,,,,,,,,,,,,,,,,,,,,,,,,,,,,,,,,,,,,,,,,,,,,,,,,,,,,,,,,,,,,,,,,,,,,,,,,,,,,,,,,444047898,PX4FMU_V1,251760679a4bed86fdb10746062fde2cc23e460f,test,305419904.0
0.0032099916134,-0.0137729020789,-2.2381913662,-0.0321764312685,-0.00143859232776,0.0106974467635,-0.0298556052148,0.046507820487,-9.89401435852,0.0,0.0,-2.18109536171,0.0,-0.0298556052148,0.046507820487,-9.89401435852,-0.0503997839987,-0.0180937126279,0.00330493971705,-0.0864492058754,0.102734684944,0.40131509304,1019.38995361,-50.9852256775,37.0200004578,0.0,0.0,-12.6052703857,-2.14062190056,-0.35060107708,0.718835711479,1.49755716324,-3.58192300797,3.90057015419,-0.0635699406266,0.0,0.0,0.0,10,1,0,20.0387706757,3.19988322258,,,,,,,,,,,,,,,,,,,,0.00209657312371,0.00913942046463,0.00695647485554,0.0,0,2,0,0.95140838623,0,1,0.0,-0.0,0.0,0.0272277221084,-1.0,0.776942372322,-0.998161792755,0.0,7,0,10.0,10.0,10.0,10.0,0.0,0.0,0.0,0.0,,,,-0.0160489454865,0.0688646435738,0.0570739433169,0,0,0.0,0.0,0.300000011921,0,77,,,,,,,,,,,,,,,,,,,,,,,,,,,,,,,,,11.5740947723,11.626502037,-1.0,-1.0,,,,,,,,,,,,,,,,,,,,,,,,,,,,,,,,,,,,,,,,,,,,,,,,,,,,,,,,,,,,,,,,,,,,,,,,,,,,,,,,,,,,,,,,,,,,,,,,,,,,,,,444069145,PX4FMU_V1,251760679a4bed86fdb10746062fde2cc23e460f,test,305419904.0
0.0028897030279,-0.013812863268,-2.23727250099,0.0129296127707,0.01627134718,-0.0127794798464,-0.0158232692629,-0.226842492819,-9.86472988129,0.0,0.0,-2.18109536171,0.0,-0.0158232692629,-0.226842492819,-9.86472988129,0.0256284605712,0.0289826299995,-0.0024609582033,-0.0763580128551,0.0944123342633,0.392414063215,1019.40997314,-51.150894165,37.0099983215,0.0,0.0,-12.6052703857,-2.14062190056,-0.350027173758,0.718835711479,1.49755716324,-3.58192300797,3.90057015419,-0.0651435106993,0.0,0.0,0.0,10,1,0,20.0387706757,3.20000362396,,,,,,,,,,,,,,,,,,,,-0.00355903618038,0.0068630981259,0.0103404773399,0.0,0,2,0,0.95140838623,0,1,0.0,-0.0,0.0,0.0247524753213,-1.0,0.776942372322,-0.998161792755,0.0,7,0,10.0,10.0,10.0,10.0,0.0,0.0,0.0,0.0,,,,-0.0144475894049,0.0690644085407,0.0561570338905,0,0,0.0,0.0,0.300000011921,0,77,,,,,,,,,,,,,,,,,,,,,,,,,,,,,,,,,11.5657138824,11.6263799667,-1.0,-1.0,,,,,,,,,,,,,,,,,,,,,,,,,,,,,,,,,,,,,,,,,,,,,,,,,,,,,,,,,,,,,,,,,,,,,,,,,,,,,,,,,,,,,,,,,,,,,,,,,,,,,,,444090634,PX4FMU_V1,251760679a4bed86fdb10746062fde2cc23e460f,test,305419904.0
0.00298944604583,-0.0135752642527,-2.23769688606,-0.013855561614,-0.00695812655613,0.0121136568487,0.0318144485354,-0.0378384031355,-9.74032115936,0.0,0.0,-2.18109536171,0.0,0.0318144485354,-0.0378384031355,-9.74032115936,-0.0306576099247,-0.0234666839242,0.00531903328374,-0.124979175627,0.151004299521,0.405765652657,1019.39996338,-51.0680618286,37.0099983215,0.0,0.0,-12.6052703857,-2.14062190056,-0.348832666874,0.718835711479,1.49755716324,-3.58192300797,3.90057015419,-0.0627263039351,0.0,0.0,0.0,10,1,0,20.0387706757,3.20012331009,,,,,,,,,,,,,,,,,,,,-0.000141797383549,0.00972848851234,0.00667014392093,0.0,0,2,0,0.95140838623,0,1,0.0,-0.0,0.0,0.0247524753213,-1.0,0.776942372322,-0.998161792755,0.0,7,0,10.0,10.0,10.0,10.0,0.0,0.0,0.0,0.0,,,,-0.0149463107809,0.067876406014,0.0565812811255,0,0,0.0,0.0,0.300000011921,0,77,,,,,,,,,,,,,,,,,,,,,,,,,,,,,,,,,11.5657138824,11.6262578964,-1.0,-1.0,,,,,,,,,,,,,,,,,,,,,,,,,,,,,,,,,,,,,,,,,,,,,,,,,,,,,,,,,,,,,,,,,,,,,,,,,,,,,,,,,,,,,,,,,,,,,,,,,,,,,,,444111480,PX4FMU_V1,251760679a4bed86fdb10746062fde2cc23e460f,test,305419904.0
0.0028588832356,-0.0140214553103,-2.23672127724,0.0201111603528,-0.0123688876629,-0.0134204896167,-0.358918994665,0.152344509959,-9.75082683563,0.0,0.0,-2.18109536171,0.0,-0.358918994665,0.152344509959,-9.75082683563,0.0440449379385,0.00631880946457,-0.0162657499313,-0.0864492058754,0.139353007078,0.386183291674,1019.39996338,-51.0680618286,37.0099983215,0.0,0.0,-12.6052703857,-2.14062190056,-0.34762686491,0.718835711479,1.49755716324,-3.58192300797,3.90057015419,-0.0647551938891,0.0,0.0,0.0,10,1,0,20.0387706757,3.20024323463,,,,,,,,,,,,,,,,,,,,-0.00447260355577,0.0107219154015,0.0103539330885,0.0,0,2,0,0.95140838623,0,1,0.0,-0.0,0.0,0.0247524753213,-1.0,0.776942372322,-0.998161792755,0.0,7,0,10.0,10.0,10.0,10.0,0.0,0.0,0.0,0.0,,,,-0.0142934843898,0.0701073855162,0.0556057244539,0,0,0.0,0.0,0.300000011921,0,77,,,,,,,,,,,,,,,,,,,,,,,,,,,,,,,,,11.5657138824,11.6261377335,-1.0,-1.0,,,,,,,,,,,,,,,,,,,,,,,,,,,,,,,,,,,,,,,,,,,,,,,,,,,,,,,,,,,,,,,,,,,,,,,,,,,,,,,,,,,,,,,,,,,,,,,,,,,,,,,444132742,PX4FMU_V1,251760679a4bed86fdb10746062fde2cc23e460f,test,305419904.0
0.00347578432411,-0.0139309391379,-2.23765206337,0.00641477527097,-0.0154396444559,0.00616810237989,0.0746062844992,-0.161174863577,-9.68519496918,0.0,0.0,-2.18109536171,0.0241116750985,0.0746062844992,-0.161174863577,-9.68519496918,-0.0119360405952,-0.0308480001986,-0.00373810529709,-0.128648683429,0.153501003981,0.392414063215,1019.38995361,-50.9852256775,37.0,0.0,0.0,-12.6052703857,-2.14062190056,-0.345399796963,0.718835711479,1.49755716324,-3.58192300797,3.90057015419,-0.0627307891846,0.0,0.0,0.0,10,1,0,20.0387706757,3.20036363602,,,,,,,,,,,,,,,,,,,,-0.00309303519316,0.0110622821376,0.0075546479784,0.0241116750985,0,2,0,0.950712203979,0,1,0.0,-0.0,0.0241116750985,0.0247524753213,-1.0,0.776942372322,-0.998161792755,0.0,7,0,12.0,12.0,11.0,12.0,0.0,0.0,0.0,0.0,,,,-0.0173778049648,0.0696548372507,0.056532420218,0,0,0.0,0.0,0.300000011921,0,77,,,,,,,,,,,,,,,,,,,,,,,,,,,,,,,,,11.5573329926,11.6260004044,-1.0,-1.0,,,,,,,,,,,,,,,,,,,,,,,,,,,,,,,,,,,,,,,,,,,,,,,,,,,,,,,,,,,,,,,,,,,,,,,,,,,,,,,,,,,,,,,,,,,,,,,,,,,,,,,444155424,PX4FMU_V1,251760679a4bed86fdb10746062fde2cc23e460f,test,305419904.0
0.00340832723305,-0.0144923850894,-2.23869895935,0.0124290827662,-0.0175324007869,-0.00961121264845,-0.506188094616,0.160821735859,-9.97134971619,0.0,0.0,-2.18109536171,0.0393401011825,-0.506188094616,0.160821735859,-9.97134971619,0.0297446846962,0.00219294475392,-0.0116669451818,-0.109383709729,0.122708320618,0.382622867823,1019.38000488,-50.9023895264,37.0,0.0,0.0,-12.6052703857,-2.14062190056,-0.345626533031,0.718835711479,1.49755716324,-3.58192300797,3.90057015419,-0.0631138160825,0.0,0.0,0.0,10,1,0,20.0387706757,3.20042395592,,,,,,,,,,,,,,,,,,,,-0.00383103918284,0.0116992788389,0.0100785270333,0.0393401011825,0,2,0,0.950712203979,0,1,0.0,-0.0,0.0393401011825,0.0272277221084,-1.0,0.776942372322,-0.998161792755,0.0,7,0,19.0,21.0,18.0,20.0,0.0,0.0,0.0,0.0,,,,-0.0170404501259,0.0724620521069,0.0575789622962,0,0,0.0,0.0,0.300000011921,0,77,,,,,,,,,,,,,,,,,,,,,,,,,,,,,,,,,11.5489521027,11.6259231567,-1.0,-1.0,,,,,,,,,,,,,,,,,,,,,,,,,,,,,,,,,,,,,,,,,,,,,,,,,,,,,,,,,,,,,,,,,,,,,,,,,,,,,,,,,,,,,,,,,,,,,,,,,,,,,,,444176163,PX4FMU_V1,251760679a4bed86fdb10746062fde2cc23e460f,test,305419904.0
0.00387954898179,-0.0141758034006,-2.23847436905,0.0097079500556,0.0132540958002,0.0148439547047,0.288647025824,-0.423890262842,-9.73279762268,0.0,0.0,-2.18109536171,0.062182739377,0.288647025824,-0.423890262842,-9.73279762268,-0.00806414056569,0.00195581326261,0.0137130822986,-0.114887982607,0.137688547373,0.402205199003,1019.42999268,-51.3165588379,36.9899978638,0.0,0.0,-12.6052703857,-2.14062190056,-0.344817131758,0.718835711479,1.49755716324,-3.58192300797,3.90057015419,-0.0631677061319,0.0,0.0,0.0,10,1,0,20.0387706757,3.20054411888,,,,,,,,,,,,,,,,,,,,-0.00378357153386,0.00749126216397,0.00637613562867,0.062182739377,0,2,0,0.950712203979,0,1,0.0,-0.0,0.062182739377,0.0247524753213,-1.0,0.779448628426,-0.998161792755,0.0,7,0,31.0,33.0,30.0,31.0,0.0,0.0,0.0,0.0,,,,-0.0193964466453,0.0708791911602,0.0573515258729,-18,8,0.229670956731,-0.110016264021,0.300000011921,67,77,,,,,,,,,,,,,,,,,,,,,,,,,,,,,,,,,11.4902858734,11.6257104874,-1.0,-1.0,,,,,,,,,,,,,,,,,,,,,,,,,,,,,,,,,,,,,,,,,,,,,,,,,,,,,,,,,,,,,,,,,,,,,,,,,,,,,,,,,,,,,,,,,,,,,,,,,,,,,,,444197267,PX4FMU_V1,251760679a4bed86fdb10746062fde2cc23e460f,test,305419904.0
0.00337585574016,-0.014532789588,-2.23846912384,-0.0186886508018,-0.00953055452555,-0.0183282494545,-0.622074365616,0.368598639965,-10.0054073334,0.0,0.0,-2.18109536171,0.062182739377,-0.622074365616,0.368598639965,-10.0054073334,-0.00308251217939,0.0058244401589,-0.0181531291455,-0.0928708612919,0.14517866075,0.405765652657,1019.35998535,-50.7367172241,36.9899978638,0.0,0.0,-12.6052703857,-2.14062190056,-0.34342327714,0.718835711479,1.49755716324,-3.58192300797,3.90057015419,-0.0628274977207,0.0,0.0,0.0,10,1,0,20.0387706757,3.20066547394,,,,,,,,,,,,,,,,,,,,0.00023537351808,0.0106853023171,0.0113516170532,0.062182739377,0,2,0,0.950712203979,0,1,0.0,-0.0,0.062182739377,0.0247524753213,-1.0,0.779448628426,-0.998161792755,0.0,7,0,30.0,33.0,29.0,32.0,0.0,0.0,0.0,0.0,,,,-0.0168780852109,0.0726640820503,0.0573491975665,0,0,0.0,0.0,0.300000011921,0,77,,,,,,,,,,,,,,,,,,,,,,,,,,,,,,,,,11.4735240936,11.6253814697,-1.0,-1.0,,,,,,,,,,,,,,,,,,,,,,,,,,,,,,,,,,,,,,,,,,,,,,,,,,,,,,,,,,,,,,,,,,,,,,,,,,,,,,,,,,,,,,,,,,,,,,,,,,,,,,,444220551,PX4FMU_V1,251760679a4bed86fdb10746062fde2cc23e460f,test,305419904.0
0.00352059979923,-0.0139648392797,-2.2401778698,-0.000633232062683,0.0305735152215,0.0184769108891,0.416927278042,-0.478537201881,-9.60563373566,0.0,0.0,-2.18109536171,0.0697969570756,0.416927278042,-0.478537201881,-9.60563373566,-0.0104650994763,0.0215366594493,0.018686003983,-0.126813918352,0.116050444543,0.385293215513,1019.42999268,-51.3165588379,37.0,0.0,0.0,-12.6052703857,-2.14062190056,-0.345045268536,0.718835711479,1.49755716324,-3.58192300797,3.90057015419,-0.0633179470897,0.0,0.0,0.0,10,1,0,20.0387706757,3.2007856369,,,,,,,,,,,,,,,,,,,,-0.00220592063852,0.00510260649025,0.00608715973794,0.0697969570756,0,2,0,0.950712203979,0,1,0.0,-0.0,0.0697969570756,0.0272277221084,-1.0,0.776942372322,-0.998161792755,0.0,7,0,34.0,37.0,34.0,35.0,0.0,0.0,0.0,0.0,,,,-0.0176018532366,0.0698243379593,0.0590579733253,0,0,0.0,0.0,0.300000011921,0,77,,,,,,,,,,,,,,,,,,,,,,,,,,,,,,,,,11.5489521027,11.6252031326,-1.0,-1.0,,,,,,,,,,,,,,,,,,,,,,,,,,,,,,,,,,,,,,,,,,,,,,,,,,,,,,,,,,,,,,,,,,,,,,,,,,,,,,,,,,,,,,,,,,,,,,,,,,,,,,,444241586,PX4FMU_V1,251760679a4bed86fdb10746062fde2cc23e460f,test,305419904.0
0.00275180162862,-0.0141445146874,-2.23985219002,-0.0271856412292,-0.00233187153935,-0.0202346108854,-0.639888584614,0.553316175938,-9.89736366272,0.0,0.0,-2.18109536171,0.0774111673236,-0.639888584614,0.553316175938,-9.89736366272,-0.00818561017513,0.0169352814555,-0.0181367211044,-0.10846632719,0.134359613061,0.387963503599,1019.40997314,-51.150894165,37.0,0.0,0.0,-12.6052703857,-2.14062190056,-0.341900676489,0.718835711479,1.49755716324,-3.58192300797,3.90057015419,-0.0633763819933,0.0,0.0,0.0,10,1,0,20.0387706757,3.20090436935,,,,,,,,,,,,,,,,,,,,0.00174558104482,0.00949709117413,0.0118457842618,0.0774111673236,0,2,0,0.950712203979,0,1,0.0,-0.0,0.0774111673236,0.0272277221084,-1.0,0.776942372322,-0.998161792755,0.0,7,0,38.0,41.0,36.0,40.0,0.0,0.0,0.0,0.0,,,,-0.01375809405,0.0707226768136,0.0587372817099,-2,21,0.0287263393402,-0.268450140953,0.300000011921,43,77,,,,,,,,,,,,,,,,,,,,,,,,,,,,,,,,,11.4986667633,11.6249752045,-1.0,-1.0,,,,,,,,,,,,,,,,,,,,,,,,,,,,,,,,,,,,,,,,,,,,,,,,,,,,,,,,,,,,,,,,,,,,,,,,,,,,,,,,,,,,,,,,,,,,,,,,,,,,,,,444263463,PX4FMU_V1,251760679a4bed86fdb10746062fde2cc23e460f,test,305419904.0
0.00293433223851,-0.0134240016341,-2.24371218681,0.00187821337022,0.0268809497356,0.0153393307701,0.436186492443,-0.619169712067,-9.58856296539,0.0,0.0,-2.18109536171,0.0786802023649,0.436186492443,-0.619169712067,-9.58856296539,-0.011080333963,0.00569251552224,0.00865681283176,-0.123144410551,0.124372787774,0.399534910917,1019.40997314,-51.150894165,37.0,0.0,0.0,-12.6052703857,-2.14062190056,-0.340827137232,0.718835711479,1.49755716324,-3.58192300797,3.90057015419,-0.0632434263825,0.0,0.0,0.0,10,1,0,20.0387706757,3.20096492767,,,,,,,,,,,,,,,,,,,,-0.00215136958286,0.00523108802736,0.00708867190406,0.0786802023649,0,2,0,0.950712203979,0,1,0.0,-0.0,0.0786802023649,0.0247524753213,-1.0,0.779448628426,-0.998161792755,0.0,7,0,39.0,41.0,38.0,40.0,0.0,0.0,0.0,0.0,,,,-0.0146707836539,0.067120090127,0.0625971406698,-1,15,0.0161449778825,-0.191575944424,0.300000011921,43,77,,,,,,,,,,,,,,,,,,,,,,,,,,,,,,,,,11.5154285431,11.6248655319,-1.0,-1.0,,,,,,,,,,,,,,,,,,,,,,,,,,,,,,,,,,,,,,,,,,,,,,,,,,,,,,,,,,,,,,,,,,,,,,,,,,,,,,,,,,,,,,,,,,,,,,,,,,,,,,,444284049,PX4FMU_V1,251760679a4bed86fdb10746062fde2cc23e460f,test,305419904.0
0.00226987036876,-0.013742832467,-2.24480485916,-0.0294959172606,-0.0110744126141,-0.0147716961801,-0.584887206554,0.686398267746,-10.0693407059,0.0,0.0,-2.18109536171,0.0786802023649,-0.584887206554,0.686398267746,-10.0693407059,-0.0176962018013,0.00667614117265,-0.013504549861,-0.107548944652,0.119379386306,0.398644804955,1019.44995117,-51.4822235107,36.9799995422,0.0,0.0,-12.6052703857,-2.14062190056,-0.336659133434,0.718835711479,1.49755716324,-3.58192300797,3.90057015419,-0.0602594688535,0.0,0.0,0.0,10,1,0,20.0387706757,3.20108509064,,,,,,,,,,,,,,,,,,,,0.00235914578661,0.0103725232184,0.0117698442191,0.0786802023649,0,2,0,0.950712203979,0,1,0.0,-0.0,0.0786802023649,0.0272277221084,-1.0,0.776942372322,-0.998161792755,0.0,7,0,39.0,42.0,37.0,41.0,0.0,0.0,0.0,0.0,,,,-0.0113486405462,0.0687142312527,0.0636939331889,0,0,0.0,0.0,0.300000011921,0,77,,,,,,,,,,,,,,,,,,,,,,,,,,,,,,,,,11.523809433,11.624671936,-1.0,-1.0,,,,,,,,,,,,,,,,,,,,,,,,,,,,,,,,,,,,,,,,,,,,,,,,,,,,,,,,,,,,,,,,,,,,,,,,,,,,,,,,,,,,,,,,,,,,,,,,,,,,,,,444305495,PX4FMU_V1,251760679a4bed86fdb10746062fde2cc23e460f,test,305419904.0
0.00259129842743,-0.0132340742275,-2.24447798729,0.00830063875765,-0.00101327488665,-0.000950973422732,0.185877397656,-0.420105725527,-9.70973777771,0.0,0.0,-2.18109536171,0.0799492374063,0.185877397656,-0.420105725527,-9.70973777771,-0.00922346394509,-0.0330323763192,-0.0245740488172,-0.0690189749002,0.151004299521,0.402205199003,1019.40997314,-51.150894165,36.9799995422,0.0,0.0,-12.6052703857,-2.14062190056,-0.335379391909,0.718835711479,1.49755716324,-3.58192300797,3.90057015419,-0.0596714615822,0.0,0.0,0.0,10,1,0,20.0387706757,3.2012052536,,,,,,,,,,,,,,,,,,,,-0.00276332790963,0.00873388536274,0.00964746437967,0.0799492374063,0,2,0,0.950712203979,0,1,0.0,-0.0,0.0799492374063,0.0272277221084,-1.0,0.779448628426,-0.998161792755,0.0,7,0,39.0,42.0,39.0,41.0,0.0,0.0,0.0,0.0,,,,-0.012955730781,0.0661704614758,0.0633654594421,5,2,-0.0707730427384,-0.0245125032961,0.300000011921,0,77,,,,,,,,,,,,,,,,,,,,,,,,,,,,,,,,,11.5321903229,11.6244955063,-1.0,-1.0,,,,,,,,,,,,,,,,,,,,,,,,,,,,,,,,,,,,,,,,,,,,,,,,,,,,,,,,,,,,,,,,,,,,,,,,,,,,,,,,,,,,,,,,,,,,,,,,,,,,,,,444327442,PX4FMU_V1,251760679a4bed86fdb10746062fde2cc23e460f,test,305419904.0
0.00233931350522,-0.0136623829603,-2.24631166458,0.00653323158622,-0.00137456913944,0.00648488244042,-0.340218186378,0.0633496269584,-9.9272813797,0.0,0.0,-2.18109536171,0.0888324901462,-0.340218186378,0.0633496269584,-9.9272813797,0.0273108240217,0.0288904383779,0.0299806445837,-0.114887982607,0.119379386306,0.402205199003,1019.40997314,-51.150894165,36.969997406,0.0,0.0,-12.6052703857,-2.14062190056,-0.333234995604,0.718835711479,1.49755716324,-3.58192300797,3.90057015419,-0.0609630644321,0.0,0.0,0.0,10,1,0,20.0387706757,3.20132613182,,,,,,,,,,,,,,,,,,,,-0.00236977939494,0.00905924942344,0.00880729779601,0.0888324901462,0,2,0,0.950712203979,0,1,0.0,-0.0,0.0888324901462,0.0272277221084,-1.0,0.776942372322,-0.998161792755,0.0,7,0,44.0,47.0,43.0,45.0,0.0,0.0,0.0,0.0,,,,-0.0116958413273,0.0683119669557,0.0652001947165,10,22,-0.0621909759939,-0.137458607554,0.300000011921,47,77,,,,,,,,,,,,,,,,,,,,,,,,,,,,,,,,,11.523809433,11.624294281,-1.0,-1.0,,,,,,,,,,,,,,,,,,,,,,,,,,,,,,,,,,,,,,,,,,,,,,,,,,,,,,,,,,,,,,,,,,,,,,,,,,,,,,,,,,,,,,,,,,,,,,,,,,,,,,,444348429,PX4FMU_V1,251760679a4bed86fdb10746062fde2cc23e460f,test,305419904.0
0.00291897752322,-0.0134807862341,-2.2453455925,0.00809940975159,-0.0153365302831,-0.0159575100988,0.0628491491079,-0.307409316301,-9.69779396057,0.0,0.0,-2.18109536171,0.0939086303115,0.0628491491079,-0.307409316301,-9.69779396057,-0.0201559066772,-0.043446496129,-0.0441349186003,-0.0836970582604,0.131030678749,0.392414063215,1019.40997314,-51.150894165,36.969997406,0.0,0.0,-12.6052703857,-2.14062190056,-0.33218473196,0.718835711479,1.49755716324,-3.58192300797,3.90057015419,-0.0594140104949,0.0,0.0,0.0,10,1,0,20.0387706757,3.20138597488,,,,,,,,,,,,,,,,,,,,-0.00295014423318,0.0107562728226,0.0120282229036,0.0939086303115,0,2,0,0.949528992176,0,1,0.0,-0.0,0.0939086303115,0.0272277221084,-1.0,0.776942372322,-0.998161792755,0.0,7,0,46.0,51.0,45.0,48.0,0.0,0.0,0.0,0.0,,,,-0.0145940091461,0.0674040317535,0.0642306357622,-4,18,0.0445674024522,-0.186544552445,0.300000011921,0,77,,,,,,,,,,,,,,,,,,,,,,,,,,,,,,,,,11.4902858734,11.6241598129,-1.0,-1.0,,,,,,,,,,,,,,,,,,,,,,,,,,,,,,,,,,,,,,,,,,,,,,,,,,,,,,,,,,,,,,,,,,,,,,,,,,,,,,,,,,,,,,,,,,,,,,,,,,,,,,,444369695,PX4FMU_V1,251760679a4bed86fdb10746062fde2cc23e460f,test,305419904.0
0.0026723742485,-0.0136855682358,-2.24379825592,0.011285033077,0.020319417119,0.027024589479,-0.115671887994,-0.244247227907,-9.67377567291,0.0,0.0,-2.18109536171,0.0989847704768,-0.115671887994,-0.244247227907,-9.67377567291,0.030898861587,0.0409256778657,0.0460950098932,-0.0919534787536,0.144346430898,0.393304169178,1019.38000488,-50.9023895264,36.969997406,0.0,0.0,-12.6052703857,-2.14062190056,-0.332077890635,0.718835711479,1.49755716324,-3.58192300797,3.90057015419,-0.0609565936029,0.0,0.0,0.0,10,1,0,20.0387706757,3.20150566101,,,,,,,,,,,,,,,,,,,,-0.00320398947224,0.00625410303473,0.0053490223363,0.0989847704768,0,2,0,0.949528992176,0,1,0.0,-0.0,0.0989847704768,0.0247524753213,-1.0,0.776942372322,-0.998161792755,0.0,7,0,49.0,52.0,48.0,50.0,0.0,0.0,0.0,0.0,,,,-0.0133610405028,0.0684279054403,0.0626847371459,0,0,0.0,0.0,0.300000011921,0,77,,,,,,,,,,,,,,,,,,,,,,,,,,,,,,,,,11.5154285431,11.6239337921,-1.0,-1.0,,,,,,,,,,,,,,,,,,,,,,,,,,,,,,,,,,,,,,,,,,,,,,,,,,,,,,,,,,,,,,,,,,,,,,,,,,,,,,,,,,,,,,,,,,,,,,,,,,,,,,,444391430,PX4FMU_V1,251760679a4bed86fdb10746062fde2cc23e460f,test,305419904.0
0.00271307933144,-0.0136640937999,-2.24354839325,-0.0204730257392,-0.0152928642929,-0.0260827615857,-0.234685450792,0.34025645256,-9.93560314178,0.0,0.0,-2.18109536171,0.0989847704768,-0.234685450792,0.34025645256,-9.93560314178,-0.0390617698431,-0.0263818595558,-0.0364144705236,-0.0919534787536,0.131862893701,0.406655758619,1019.41998291,-51.2337265015,36.969997406,0.0,0.0,-12.6052703857,-2.14062190056,-0.33048504591,0.718835711479,1.49755716324,-3.58192300797,3.90057015419,-0.0589815378189,0.0,0.0,0.0,10,1,0,20.0387706757,3.20162606239,,,,,,,,,,,,,,,,,,,,0.00089810177451,0.0108697451651,0.0132775967941,0.0989847704768,0,2,0,0.949528992176,0,1,0.0,-0.0,0.0989847704768,0.0247524753213,-1.0,0.776942372322,-0.998161792755,0.0,7,0,48.0,54.0,47.0,51.0,0.0,0.0,0.0,0.0,,,,-0.0135645503178,0.0683205574751,0.0624345503747,0,0,0.0,0.0,0.300000011921,0,77,,,,,,,,,,,,,,,,,,,,,,,,,,,,,,,,,11.5154285431,11.6237001419,-1.0,-1.0,,,,,,,,,,,,,,,,,,,,,,,,,,,,,,,,,,,,,,,,,,,,,,,,,,,,,,,,,,,,,,,,,,,,,,,,,,,,,,,,,,,,,,,,,,,,,,,,,,,,,,,444412056,PX4FMU_V1,251760679a4bed86fdb10746062fde2cc23e460f,test,305419904.0
0.0025466424413,-0.0134121077135,-2.243486166,0.00783271063119,0.0258178729564,0.0275668874383,-0.000116547103971,-0.530732035637,-9.62871551514,0.0,0.0,-2.18068003654,0.101522840559,-0.000116547103971,-0.530732035637,-9.62871551514,0.0268823057413,0.0296723246574,0.0338516235352,-0.0956229865551,0.128533959389,0.394194245338,1019.41998291,-51.2337265015,36.969997406,0.0,0.0,-12.6052703857,-2.14062190056,-0.327434003353,0.718835711479,1.49755716324,-3.58192300797,3.90057015419,-0.0592103302479,0.0,0.0,0.0,10,1,0,20.0387706757,3.2017455101,,,,,,,,,,,,,,,,,,,,-0.00267347041517,0.00536155700684,0.00644975202158,0.101522840559,0,2,0,0.949528992176,0,1,0.0,-0.0,0.101522840559,0.0247524753213,-1.0,0.776942372322,-0.998161792755,0.0,7,0,50.0,53.0,50.0,52.0,0.0,0.0,0.0,0.0,,,,-0.012732447125,0.0670606195927,0.0705652311444,-5,-9,0.061259765178,0.111276298761,0.300000011921,47,77,,,,,,,,,,,,,,,,,,,,,,,,,,,,,,,,,11.523809433,11.6234998703,-1.0,-1.0,,,,,,,,,,,,,,,,,,,,,,,,,,,,,,,,,,,,,,,,,,,,,,,,,,,,,,,,,,,,,,,,,,,,,,,,,,,,,,,,,,,,,,,,,,,,,,,,,,,,,,,444433245,PX4FMU_V1,251760679a4bed86fdb10746062fde2cc23e460f,test,305419904.0
0.00230717309751,-0.013701477088,-2.24731373787,-0.0173915978521,-0.0169236622751,-0.0148175330833,-0.313595443964,0.737924695015,-10.0073471069,0.0,0.0,-2.17936992645,0.107868023217,-0.313595443964,0.737924695015,-10.0073471069,-0.0127622392029,-0.00230296049267,0.0103930626065,-0.118557490408,0.113553732634,0.385293215513,1019.40997314,-51.150894165,36.9599990845,0.0,0.0,-12.6052703857,-2.14062190056,-0.324679225683,0.718835711479,1.49755716324,-3.58192300797,3.90057015419,-0.0588836036623,0.0,0.0,0.0,10,1,0,20.0387706757,3.2018661499,,,,,,,,,,,,,,,,,,,,0.000761339790188,0.011106044054,0.0136949252337,0.107868023217,0,2,0,0.949528992176,0,1,0.0,-0.0,0.107868023217,0.0272277221084,-1.0,0.776942372322,-0.998161792755,0.0,7,0,52.0,59.0,50.0,57.0,0.0,0.0,0.0,0.0,,,,-0.0115351378918,0.0685074478388,0.0764819607139,0,0,0.0,0.0,0.300000011921,0,77,,,,,,,,,,,,,,,,,,,,,,,,,,,,,,,,,11.523809433,11.6232843399,-1.0,-1.0,,,,,,,,,,,,,,,,,,,,,,,,,,,,,,,,,,,,,,,,,,,,,,,,,,,,,,,,,,,,,,,,,,,,,,,,,,,,,,,,,,,,,,,,,,,,,,,,,,,,,,,444455660,PX4FMU_V1,251760679a4bed86fdb10746062fde2cc23e460f,test,305419904.0
0.00279014790431,-0.0134822595865,-2.24903345108,0.0224302019924,0.00224012439139,0.00648617744446,0.0243757646531,-0.762222886086,-9.72447395325,0.0,0.0,-2.17829108238,0.123096443713,0.0243757646531,-0.762222886086,-9.72447395325,0.0157923717052,-0.0229748375714,-0.0269300602376,-0.107548944652,0.101902455091,0.403095304966,1019.38000488,-50.9023895264,36.9599990845,0.0,0.0,-12.6052703857,-2.14062190056,-0.324638336897,0.718835711479,1.49755716324,-3.58192300797,3.90057015419,-0.0587259270251,0.0,0.0,0.0,10,1,0,20.0387706757,3.20192694664,,,,,,,,,,,,,,,,,,,,-0.00472941203043,0.00847226474434,0.0108020314947,0.123096443713,0,2,0,0.949528992176,0,1,0.0,-0.0,0.123096443713,0.0247524753213,-1.0,0.779448628426,-0.998161792755,0.0,7,0,60.0,67.0,59.0,63.0,0.0,0.0,0.0,0.0,,,,-0.013949890621,0.0674113929272,0.0784997195005,0,0,0.0,0.0,0.300000011921,0,77,,,,,,,,,,,,,,,,,,,,,,,,,,,,,,,,,11.4902858734,11.6231517792,-1.0,-1.0,,,,,,,,,,,,,,,,,,,,,,,,,,,,,,,,,,,,,,,,,,,,,,,,,,,,,,,,,,,,,,,,,,,,,,,,,,,,,,,,,,,,,,,,,,,,,,,,,,,,,,,444476575,PX4FMU_V1,251760679a4bed86fdb10746062fde2cc23e460f,test,305419904.0
0.00242250552401,-0.0138274664059,-2.2450325489,-0.0132352365181,-0.00669923098758,0.00438140146434,-0.316978812218,0.347226798534,-9.95635318756,0.0,0.0,-2.17725253105,0.145939081907,-0.316978812218,0.347226798534,-9.95635318756,-0.00345586007461,0.0192995555699,0.0438202321529,-0.0855318233371,0.167649000883,0.392414063215,1019.36999512,-50.8195533752,36.9599990845,0.0,0.0,-12.6052703857,-2.14062190056,-0.326251834631,0.718835711479,1.49755716324,-3.58192300797,3.90057015419,-0.0603612102568,0.0,0.0,0.0,10,1,0,20.0387706757,3.20204734802,,,,,,,,,,,,,,,,,,,,0.000146052465425,0.00985876098275,0.0106736980379,0.145939081907,0,2,0,0.949528992176,0,1,0.0,-0.0,0.145939081907,0.0247524753213,-1.0,0.779448628426,-0.998161792755,0.0,7,0,72.0,80.0,68.0,76.0,0.0,0.0,0.0,0.0,,,,-0.0121117560193,0.0691373944283,0.0755393877625,0,0,0.0,0.0,0.300000011921,0,77,,,,,,,,,,,,,,,,,,,,,,,,,,,,,,,,,11.4399995804,11.622836113,-1.0,-1.0,,,,,,,,,,,,,,,,,,,,,,,,,,,,,,,,,,,,,,,,,,,,,,,,,,,,,,,,,,,,,,,,,,,,,,,,,,,,,,,,,,,,,,,,,,,,,,,,,,,,,,,444497713,PX4FMU_V1,251760679a4bed86fdb10746062fde2cc23e460f,test,305419904.0
0.00265573873185,-0.0136925252154,-2.2441174984,-0.0116960993037,-0.00874659325927,-0.035574670881,-0.125217422843,0.243210971355,-9.87153053284,0.0,0.0,-2.1759390831,0.162436544895,-0.125217422843,0.243210971355,-9.87153053284,-0.0342329405248,-0.0207379534841,-0.0568337142467,-0.104796789587,0.132695138454,0.402205199003,1019.36999512,-50.8195533752,36.9500007629,0.0,0.0,-12.6052703857,-2.14062190056,-0.325705498457,0.718835711479,1.49755716324,-3.58192300797,3.90057015419,-0.0593104586005,0.0,0.0,0.0,10,1,0,20.0387706757,3.20216703415,,,,,,,,,,,,,,,,,,,,-0.000205630145501,0.01003721077,0.0168433059007,0.162436544895,0,2,0,0.949528992176,0,1,0.0,-0.0,0.162436544895,0.0272277221084,-1.0,0.776942372322,-0.998161792755,0.0,7,0,79.0,89.0,76.0,85.0,0.0,0.0,0.0,0.0,,,,-0.0132778696716,0.0684627220035,0.0767140313983,0,0,0.0,0.0,0.300000011921,0,77,,,,,,,,,,,,,,,,,,,,,,,,,,,,,,,,,11.4399995804,11.6224212646,-1.0,-1.0,,,,,,,,,,,,,,,,,,,,,,,,,,,,,,,,,,,,,,,,,,,,,,,,,,,,,,,,,,,,,,,,,,,,,,,,,,,,,,,,,,,,,,,,,,,,,,,,,,,,,,,444519757,PX4FMU_V1,251760679a4bed86fdb10746062fde2cc23e460f,test,305419904.0
0.00231015542522,-0.0134190199897,-2.24337482452,-0.0057471068576,0.0205427426845,0.0330866985023,-0.189053922892,-0.74449968338,-9.64220714569,0.0,0.0,-2.17486262321,0.168781727552,-0.189053922892,-0.74449968338,-9.64220714569,0.00789128430188,0.0211600661278,0.0333074852824,-0.100209906697,0.146843135357,0.38440310955,1019.36999512,-50.8195533752,36.9500007629,0.0,0.0,-12.6052703857,-2.14062190056,-0.327686876059,0.718835711479,1.49755716324,-3.58192300797,3.90057015419,-0.0621004141867,0.0,0.0,0.0,10,1,0,20.0387706757,3.20228672028,,,,,,,,,,,,,,,,,,,,-0.000754387350753,0.00605181232095,0.00647793663666,0.168781727552,0,2,0,0.949528992176,0,1,0.0,-0.0,0.168781727552,0.0247524753213,-1.0,0.776942372322,-0.998161792755,0.0,7,0,84.0,89.0,82.0,87.0,0.0,0.0,0.0,0.0,,,,-0.0115500865504,0.0670951455832,0.0762729421258,0,0,0.0,0.0,0.300000011921,0,77,,,,,,,,,,,,,,,,,,,,,,,,,,,,,,,,,11.4567613602,11.6220321655,-1.0,-1.0,,,,,,,,,,,,,,,,,,,,,,,,,,,,,,,,,,,,,,,,,,,,,,,,,,,,,,,,,,,,,,,,,,,,,,,,,,,,,,,,,,,,,,,,,,,,,,,,,,,,,,,444541206,PX4FMU_V1,251760679a4bed86fdb10746062fde2cc23e460f,test,305419904.0
0.00183872692287,-0.0132874669507,-2.24422931671,-0.0354105569422,0.0140636768192,-0.0239025354385,0.257511585951,0.803295254707,-10.402765274,0.0,0.0,-2.17375612259,0.182741120458,0.257511585951,0.803295254707,-10.402765274,-0.0378494486213,0.0241501107812,0.000599341467023,-0.0956229865551,0.136024072766,0.38440310955,1019.44000244,-51.3993911743,36.9399986267,0.0,0.0,-12.6052703857,-2.14062190056,-0.328681021929,0.718835711479,1.49755716324,-3.58192300797,3.90057015419,-0.0602749884129,0.0,0.0,0.0,10,1,0,20.0387706757,3.20234727859,,,,,,,,,,,,,,,,,,,,0.00340827018954,0.00680857896805,0.0154375946149,0.182741120458,0,2,0,0.949528992176,0,1,0.0,-0.0,0.182741120458,0.0272277221084,-1.0,0.776942372322,-0.998161792755,0.0,7,0,89.0,99.0,85.0,98.0,0.0,0.0,0.0,0.0,,,,-0.00919309351593,0.0664373636246,0.0790147557855,-6,12,0.0760915949941,-0.152763098478,0.300000011921,0,77,,,,,,,,,,,,,,,,,,,,,,,,,,,,,,,,,11.4567613602,11.6218671799,-1.0,-1.0,,,,,,,,,,,,,,,,,,,,,,,,,,,,,,,,,,,,,,,,,,,,,,,,,,,,,,,,,,,,,,,,,,,,,,,,,,,,,,,,,,,,,,,,,,,,,,,,,,,,,,,444562295,PX4FMU_V1,251760679a4bed86fdb10746062fde2cc23e460f,test,305419904.0
0.00177305098623,-0.0130842737854,-2.24532103539,-0.00814323779196,-0.00569883035496,-0.0252458620816,-0.431556344032,0.0225446801633,-9.76521682739,0.0,0.0,-2.17238402367,0.182741120458,-0.431556344032,0.0225446801633,-9.76521682739,-0.0192429386079,-0.0149453822523,-0.0488327480853,-0.11305321753,0.140185251832,0.403985440731,1019.39996338,-51.0680618286,36.9399986267,0.0,0.0,-12.6052703857,-2.14062190056,-0.325873970985,0.718835711479,1.49755716324,-3.58192300797,3.90057015419,-0.0609278976917,0.0,0.0,0.0,10,1,0,20.0387706757,3.20246720314,,,,,,,,,,,,,,,,,,,,-9.37969671213e-05,0.00924562849104,0.0160087868571,0.182741120458,0,2,0,0.947761535645,0,1,0.0,-0.0,0.182741120458,0.0272277221084,-1.0,0.776942372322,-0.998161792755,0.0,7,0,90.0,98.0,88.0,95.0,0.0,0.0,0.0,0.0,,,,-0.00886475294828,0.0654213950038,0.0814793780446,0,0,0.0,0.0,0.300000011921,0,77,,,,,,,,,,,,,,,,,,,,,,,,,,,,,,,,,11.4399995804,11.6214618683,-1.0,-1.0,,,,,,,,,,,,,,,,,,,,,,,,,,,,,,,,,,,,,,,,,,,,,,,,,,,,,,,,,,,,,,,,,,,,,,,,,,,,,,,,,,,,,,,,,,,,,,,,,,,,,,,444584172,PX4FMU_V1,251760679a4bed86fdb10746062fde2cc23e460f,test,305419904.0
0.00186825427227,-0.0130229648203,-2.24246716499,0.0254155378789,-0.00849829334766,0.0326722934842,-0.0906448662281,-0.511694312096,-9.39640045166,0.0,0.0,-2.1712474823,0.192893400788,-0.0906448662281,-0.511694312096,-9.39640045166,0.0322797521949,-0.0191352032125,0.0282200407237,-0.0708537399769,0.14767536521,0.389743715525,1019.39996338,-51.0680618286,36.9399986267,0.0,0.0,-12.6052703857,-2.14062190056,-0.324710160494,0.718835711479,1.49755716324,-3.58192300797,3.90057015419,-0.0634272098541,0.0,0.0,0.0,10,1,0,20.0387706757,3.20258808136,,,,,,,,,,,,,,,,,,,,-0.00451831705868,0.00956971012056,0.0070633450523,0.192893400788,0,2,0,0.947761535645,0,1,0.0,-0.0,0.192893400788,0.0272277221084,-1.0,0.776942372322,-0.998161792755,0.0,7,0,96.0,103.0,94.0,98.0,0.0,0.0,0.0,0.0,,,,-0.00934074819088,0.0651148632169,0.0797612592578,0,0,0.0,0.0,0.300000011921,0,77,,,,,,,,,,,,,,,,,,,,,,,,,,,,,,,,,11.4651432037,11.62114048,-1.0,-1.0,,,,,,,,,,,,,,,,,,,,,,,,,,,,,,,,,,,,,,,,,,,,,,,,,,,,,,,,,,,,,,,,,,,,,,,,,,,,,,,,,,,,,,,,,,,,,,,,,,,,,,,444604640,PX4FMU_V1,251760679a4bed86fdb10746062fde2cc23e460f,test,305419904.0
0.00203470350243,-0.0134162772447,-2.23894429207,0.0114064710215,-0.0130317192525,-0.00994865782559,0.31761392951,0.48992189765,-10.4333868027,0.0,0.0,-2.17010426521,0.214467003942,0.31761392951,0.48992189765,-10.4333868027,0.0179017502815,0.000886517926119,0.0240080021322,-0.0864492058754,0.13685631752,0.395084351301,1019.42999268,-51.3165588379,36.9300003052,0.0,0.0,-12.6052703857,-2.14062190056,-0.321737796068,0.718835711479,1.49755716324,-3.58192300797,3.90057015419,-0.0615659244359,0.0,0.0,0.0,10,0,0,20.0387706757,3.20270752907,,,,,,,,,,,,,,,,,,,,-0.00280531891622,0.0104147102684,0.0130993267521,0.214467003942,0,2,0,0.947761535645,0,1,0.0,-0.0,0.214467003942,0.0272277221084,-1.0,0.776942372322,-0.996323525906,0.0,7,0,104.0,119.0,100.0,113.0,0.0,0.0,0.0,0.0,,,,-0.010172907263,0.0670814365149,0.0773801878095,0,0,0.0,0.0,0.300000011921,0,77,,,,,,,,,,,,,,,,,,,,,,,,,,,,,,,,,11.3478097916,11.6206865311,-1.0,-1.0,,,,,,,,,,,,,,,,,,,,,,,,,,,,,,,,,,,,,,,,,,,,,,,,,,,,,,,,,,,,,,,,,,,,,,,,,,,,,,,,,,,,,,,,,,,,,,,,,,,,,,,444625908,PX4FMU_V1,251760679a4bed86fdb10746062fde2cc23e460f,test,305419904.0
0.00232449080795,-0.013745018281,-2.23928165436,-0.012213091366,-0.00489200931042,-0.0252472348511,-0.217618763447,0.219517976046,-9.72044754028,0.0,0.0,-2.16872668266,0.24111674726,-0.217618763447,0.219517976046,-9.72044754028,-0.0308828018606,0.0145261865109,-0.0231622252613,-0.0956229865551,0.117714904249,0.397754698992,1019.42999268,-51.3165588379,36.9300003052,0.0,0.0,-12.6052703857,-2.14062190056,-0.319799482822,0.718835711479,1.49755716324,-3.58192300797,3.90057015419,-0.0580176487565,0.0,0.0,0.0,10,0,0,20.0387706757,3.20282840729,,,,,,,,,,,,,,,,,,,,7.68781319493e-05,0.00957022886723,0.0156510286033,0.24111674726,0,2,0,0.947761535645,0,1,0.0,-0.0,0.24111674726,0.0272277221084,-1.0,0.776942372322,-0.998161792755,0.0,7,0,117.0,133.0,113.0,127.0,0.0,0.0,0.0,0.0,,,,-0.0116217210889,0.0687251389027,0.0790929496288,1,-24,-0.0230928100646,0.294907987118,0.300000011921,47,77,,,,,,,,,,,,,,,,,,,,,,,,,,,,,,,,,11.4064760208,11.6202335358,-1.0,-1.0,,,,,,,,,,,,,,,,,,,,,,,,,,,,,,,,,,,,,,,,,,,,,,,,,,,,,,,,,,,,,,,,,,,,,,,,,,,,,,,,,,,,,,,,,,,,,,,,,,,,,,,444648388,PX4FMU_V1,251760679a4bed86fdb10746062fde2cc23e460f,test,305419904.0
0.0021396658849,-0.0133428387344,-2.23912572861,-0.0211992841214,0.0149505855516,0.00294725224376,-0.696257591248,-0.516798377037,-9.36856651306,0.0,0.0,-2.1675927639,0.262690365314,-0.696257591248,-0.516798377037,-9.36856651306,-0.0404912941158,0.00123891036492,-0.0469734668732,-0.11305321753,0.149339839816,0.40042501688,1019.4699707,-51.6478843689,36.9099998474,0.0,0.0,-12.6052703857,-2.14062190056,-0.317820906639,0.718835711479,1.49755716324,-3.58192300797,3.90057015419,-0.0623134821653,0.0,0.0,0.0,10,0,0,20.0387706757,3.20288872719,,,,,,,,,,,,,,,,,,,,0.00136520701926,0.00672927545384,0.0115687791258,0.262690365314,0,2,0,0.946617782116,0,0,0.0,-0.0,0.262690365314,0.0272277221084,-1.0,0.776942372322,-0.998161792755,0.0,7,0,131.0,139.0,128.0,136.0,0.0,0.0,0.0,0.0,,,,-0.0106976917014,0.0667142421007,0.0800724476576,0,0,0.0,0.0,0.300000011921,0,77,,,,,,,,,,,,,,,,,,,,,,,,,,,,,,,,,11.3142852783,11.6199274063,-1.0,-1.0,,,,,,,,,,,,,,,,,,,,,,,,,,,,,,,,,,,,,,,,,,,,,,,,,,,,,,,,,,,,,,,,,,,,,,,,,,,,,,,,,,,,,,,,,,,,,,,,,,,,,,,444669313,PX4FMU_V1,251760679a4bed86fdb10746062fde2cc23e460f,test,305419904.0
0.00141836365219,-0.0128335766494,-2.24087667465,-0.0110397320241,0.022649327293,0.0113630192354,0.421714365482,-0.0218541119248,-10.1954030991,0.0,0.0,-2.1664493084,0.265228420496,0.421714365482,-0.0218541119248,-10.1954030991,0.0336667522788,0.0126926992089,0.0409834608436,-0.111218452454,0.123540557921,0.396864563227,1019.41998291,-51.2337265015,36.9099998474,0.0,0.0,-12.6052703857,-2.14062190056,-0.311587154865,0.718835711479,1.49755716324,-3.58192300797,3.90057015419,-0.0583563707769,0.0,0.0,0.0,10,0,0,20.0387706757,3.20300865173,,,,,,,,,,,,,,,,,,,,0.000513280392624,0.00539741385728,0.0107413912192,0.265228420496,0,2,0,0.946617782116,0,0,0.0,-0.0,0.265228420496,0.0272277221084,-1.0,0.776942372322,-0.998161792755,0.0,7,0,131.0,141.0,128.0,139.0,0.0,0.0,0.0,0.0,,,,-0.0070914211683,0.064167894423,0.0829722955823,0,0,0.0,0.0,0.300000011921,0,77,,,,,,,,,,,,,,,,,,,,,,,,,,,,,,,,,11.3478097916,11.619433403,-1.0,-1.0,,,,,,,,,,,,,,,,,,,,,,,,,,,,,,,,,,,,,,,,,,,,,,,,,,,,,,,,,,,,,,,,,,,,,,,,,,,,,,,,,,,,,,,,,,,,,,,,,,,,,,,444690534,PX4FMU_V1,251760679a4bed86fdb10746062fde2cc23e460f,test,305419904.0
0.00157083687373,-0.0128367384896,-2.23993587494,0.0153908049688,-0.000641755876131,0.0315810032189,0.637707471848,-0.456758797169,-10.3895940781,0.0,0.0,-2.16507458687,0.265228420496,0.637707471848,-0.456758797169,-10.3895940781,0.037212125957,0.00231561833061,0.083383731544,-0.100209906697,0.129366204143,0.403095304966,1019.41998291,-51.2337265015,36.9099998474,0.0,0.0,-12.6052703857,-2.14062190056,-0.308656722307,0.718835711479,1.49755716324,-3.58192300797,3.90057015419,-0.0540716461837,0.0,0.0,0.0,10,0,0,20.0387706757,3.2031288147,,,,,,,,,,,,,,,,,,,,-0.003021792043,0.00842731073499,0.00777361914515,0.265228420496,0,2,0,0.946617782116,0,0,0.0,-0.0,0.265228420496,0.0272277221084,-1.0,0.776942372322,-0.998161792755,0.0,7,0,129.0,145.0,125.0,140.0,0.0,0.0,0.0,0.0,,,,-0.00785374920815,0.0641837120056,0.0834051296115,0,0,0.0,0.0,0.300000011921,0,77,,,,,,,,,,,,,,,,,,,,,,,,,,,,,,,,,11.3980951309,11.6189823151,-1.0,-1.0,,,,,,,,,,,,,,,,,,,,,,,,,,,,,,,,,,,,,,,,,,,,,,,,,,,,,,,,,,,,,,,,,,,,,,,,,,,,,,,,,,,,,,,,,,,,,,,,,,,,,,,444712301,PX4FMU_V1,251760679a4bed86fdb10746062fde2cc23e460f,test,305419904.0
0.00154097971972,-0.0131654618308,-2.23904180527,-0.0172620303929,-0.0041294763796,-0.0428271889687,0.171561807394,0.433329761028,-9.80927276611,0.0,0.0,-2.16392087936,0.270304560661,0.171561807394,0.433329761028,-9.80927276611,-0.030493862927,0.0126882642508,-0.0533644035459,-0.0827796682715,0.141849726439,0.389743715525,1019.39996338,-51.0680618286,36.9099998474,0.0,0.0,-12.6052703857,-2.14062190056,-0.307045698166,0.718835711479,1.49755716324,-3.58192300797,3.90057015419,-0.0526414252818,0.0,0.0,0.0,10,0,0,20.0387706757,3.20324993134,,,,,,,,,,,,,,,,,,,,0.00124248513021,0.00909438543022,0.0189737733454,0.270304560661,0,2,0,0.946617782116,0,0,0.0,-0.0,0.270304560661,0.0272277221084,-1.0,0.776942372322,-0.998161792755,0.0,7,0,131.0,149.0,126.0,144.0,0.0,0.0,0.0,0.0,,,,-0.00770445214584,0.0658273398876,0.0836646333337,0,0,0.0,0.0,0.300000011921,0,77,,,,,,,,,,,,,,,,,,,,,,,,,,,,,,,,,11.4064760208,11.6185569763,-1.0,-1.0,,,,,,,,,,,,,,,,,,,,,,,,,,,,,,,,,,,,,,,,,,,,,,,,,,,,,,,,,,,,,,,,,,,,,,,,,,,,,,,,,,,,,,,,,,,,,,,,,,,,,,,444732752,PX4FMU_V1,251760679a4bed86fdb10746062fde2cc23e460f,test,305419904.0
0.00141603790689,-0.0129526862875,-2.23881244659,-0.0191312022507,0.0131604010239,-0.0269138514996,-1.32285547256,-0.0315328389406,-9.29769229889,0.0,0.0,-2.16279125214,0.281725883484,-1.32285547256,-0.0315328389406,-9.29769229889,-0.0344793610275,0.0154307661578,-0.0842184349895,-0.0965403690934,0.140185251832,0.393304169178,1019.34997559,-50.653881073,36.9099998474,0.0,0.0,-12.6052703857,-2.14062190056,-0.307434916496,0.718835711479,1.49755716324,-3.58192300797,3.90057015419,-0.0580345317721,0.0,0.0,0.0,10,0,0,20.0387706757,3.20330882072,,,,,,,,,,,,,,,,,,,,0.0015666836407,0.00670839613304,0.0167219303548,0.281725883484,0,2,0,0.946617782116,0,0,0.0,-0.0,0.281725883484,0.0272277221084,-1.0,0.776942372322,-0.998161792755,0.0,7,0,139.0,151.0,135.0,148.0,0.0,0.0,0.0,0.0,,,,-0.00707978894934,0.0647634491324,0.0845656841993,0,0,0.0,0.0,0.300000011921,0,77,,,,,,,,,,,,,,,,,,,,,,,,,,,,,,,,,11.3980951309,11.6183366776,-1.0,-1.0,,,,,,,,,,,,,,,,,,,,,,,,,,,,,,,,,,,,,,,,,,,,,,,,,,,,,,,,,,,,,,,,,,,,,,,,,,,,,,,,,,,,,,,,,,,,,,,,,,,,,,,444754118,PX4FMU_V1,251760679a4bed86fdb10746062fde2cc23e460f,test,305419904.0
0.00135405361652,-0.0127459047362,-2.2376499176,0.00133011455182,-0.0169385354966,0.031476534903,-0.98178511858,0.141934931278,-9.61888885498,0.0,0.0,-2.16142559052,0.281725883484,-0.98178511858,0.141934931278,-9.61888885498,-0.0125317601487,-0.0308787636459,-0.00638518948108,-0.0965403690934,0.135191857815,0.396864563227,1019.39996338,-51.0680618286,36.8999977112,0.0,0.0,-12.6052703857,-2.14062190056,-0.311571627855,0.718835711479,1.49755716324,-3.58192300797,3.90057015419,-0.0594744123518,0.0,0.0,0.0,10,0,0,20.0387706757,3.20343017578,,,,,,,,,,,,,,,,,,,,-0.00105300196446,0.010486847721,0.00799393747002,0.281725883484,0,2,0,0.945229828358,0,0,0.0,-0.0,0.281725883484,0.0272277221084,-1.0,0.776942372322,-0.998161792755,0.0,7,0,142.0,149.0,139.0,143.0,0.0,0.0,0.0,0.0,,,,-0.00676990067586,0.0637295246124,0.0847694501281,-2,-21,0.0262649655342,0.263917773962,0.300000011921,51,77,,,,,,,,,,,,,,,,,,,,,,,,,,,,,,,,,11.3561906815,11.6178455353,-1.0,-1.0,,,,,,,,,,,,,,,,,,,,,,,,,,,,,,,,,,,,,,,,,,,,,,,,,,,,,,,,,,,,,,,,,,,,,,,,,,,,,,,,,,,,,,,,,,,,,,,,,,,,,,,444776437,PX4FMU_V1,251760679a4bed86fdb10746062fde2cc23e460f,test,305419904.0
0.00162347056903,-0.0129669923335,-2.23874950409,0.0278042647988,-0.0164448842406,0.0254488475621,0.0455912984908,-0.33828407526,-9.85754394531,0.0,0.0,-2.1602807045,0.288071066141,0.0455912984908,-0.33828407526,-9.85754394531,0.028271580115,-0.0183926392347,0.0361967086792,-0.112135834992,0.134359613061,0.389743715525,1019.36999512,-50.8195533752,36.8999977112,0.0,0.0,-12.6052703857,-2.14062190056,-0.309162765741,0.718835711479,1.49755716324,-3.58192300797,3.90057015419,-0.0588056743145,0.0,0.0,0.0,10,0,0,20.0387706757,3.20355081558,,,,,,,,,,,,,,,,,,,,-0.00466975104064,0.0105663845316,0.00923448521644,0.288071066141,0,2,0,0.945229828358,0,0,0.0,-0.0,0.288071066141,0.0272277221084,-1.0,0.776942372322,-0.998161792755,0.0,7,0,143.0,155.0,140.0,148.0,0.0,0.0,0.0,0.0,,,,-0.00811689998955,0.0648349970579,0.0870120823383,-5,15,0.0688170865178,-0.188491851091,0.300000011921,0,77,,,,,,,,,,,,,,,,,,,,,,,,,,,,,,,,,11.389714241,11.6173725128,-1.0,-1.0,,,,,,,,,,,,,,,,,,,,,,,,,,,,,,,,,,,,,,,,,,,,,,,,,,,,,,,,,,,,,,,,,,,,,,,,,,,,,,,,,,,,,,,,,,,,,,,,,,,,,,,444797218,PX4FMU_V1,251760679a4bed86fdb10746062fde2cc23e460f,test,305419904.0
0.00182176590897,-0.0130297094584,-2.24274325371,0.0146466298029,0.00567212002352,-0.0206642486155,0.986515581608,-0.470044910908,-10.167386055,0.0,0.0,-2.15912556648,0.289340108633,0.986515581608,-0.470044910908,-10.167386055,0.0220557376742,0.00740672182292,0.0273541286588,-0.122227028012,0.113553732634,0.39063385129,1019.36999512,-50.8195533752,36.8999977112,0.0,0.0,-12.6052703857,-2.14062190056,-0.311282873154,0.718835711479,1.49755716324,-3.58192300797,3.90057015419,-0.0597041770816,0.0,0.0,0.0,10,0,0,20.0387706757,3.20367097855,,,,,,,,,,,,,,,,,,,,-0.00308814342134,0.00773194106296,0.0169235989451,0.289340108633,0,2,0,0.945229828358,0,0,0.0,-0.0,0.289340108633,0.0272277221084,-1.0,0.779448628426,-0.998161792755,0.0,7,0,140.0,158.0,137.0,153.0,0.0,0.0,0.0,0.0,,,,-0.00910831987858,0.0651485919952,0.0921597480774,0,0,0.0,0.0,0.300000011921,0,77,,,,,,,,,,,,,,,,,,,,,,,,,,,,,,,,,11.3813333511,11.6168842316,-1.0,-1.0,,,,,,,,,,,,,,,,,,,,,,,,,,,,,,,,,,,,,,,,,,,,,,,,,,,,,,,,,,,,,,,,,,,,,,,,,,,,,,,,,,,,,,,,,,,,,,,,,,,,,,,444818522,PX4FMU_V1,251760679a4bed86fdb10746062fde2cc23e460f,test,305419904.0
0.00130127661396,-0.012849339284,-2.2449016571,-0.0293531548232,0.0234097968787,-0.00879877433181,0.4881092906,-0.0192406699061,-9.80326080322,0.0,0.0,-2.15775609016,0.290609151125,0.4881092906,-0.0192406699061,-9.80326080322,-0.0103927422315,0.0280734561384,0.012803601101,-0.103879407048,0.133527368307,0.389743715525,1019.41998291,-51.2337265015,36.8899993896,0.0,0.0,-12.6052703857,-2.14062190056,-0.308921039104,0.718835711479,1.49755716324,-3.58192300797,3.90057015419,-0.0575076378882,0.0,0.0,0.0,10,0,0,20.0387706757,3.20379137993,,,,,,,,,,,,,,,,,,,,0.00297012692317,0.00530879804865,0.0156734604388,0.290609151125,0,2,0,0.945229828358,0,0,0.0,-0.0,0.290609151125,0.0272277221084,-1.0,0.776942372322,-0.998161792755,0.0,7,0,142.0,156.0,138.0,155.0,0.0,0.0,0.0,0.0,,,,-0.0065060229972,0.0642467066646,0.0956909507513,0,0,0.0,0.0,0.300000011921,0,77,,,,,,,,,,,,,,,,,,,,,,,,,,,,,,,,,11.3813333511,11.6164131165,-1.0,-1.0,,,,,,,,,,,,,,,,,,,,,,,,,,,,,,,,,,,,,,,,,,,,,,,,,,,,,,,,,,,,,,,,,,,,,,,,,,,,,,,,,,,,,,,,,,,,,,,,,,,,,,,444840743,PX4FMU_V1,251760679a4bed86fdb10746062fde2cc23e460f,test,305419904.0
0.000899327686056,-0.0126141421497,-2.24462652206,-0.00856336019933,0.0124796917662,-0.0311168581247,-0.0965571925044,0.473097443581,-9.80944442749,0.0,0.0,-2.15661168098,0.290609151125,-0.0965571925044,0.473097443581,-9.80944442749,0.016790876165,0.00970830861479,-0.060060068965,-0.104796789587,0.136024072766,0.411996394396,1019.34997559,-50.653881073,36.8899993896,0.0,0.0,-12.6052703857,-2.14062190056,-0.310983002186,0.718835711479,1.49755716324,-3.58192300797,3.90057015419,-0.0604077130556,0.0,0.0,0.0,10,0,0,20.0387706757,3.20385098457,,,,,,,,,,,,,,,,,,,,0.000528705248144,0.00657683238387,0.0191519651562,0.290609151125,0,2,0,0.945229828358,0,0,0.0,-0.0,0.290609151125,0.0272277221084,-1.0,0.776942372322,-0.998161792755,0.0,7,0,142.0,157.0,137.0,155.0,0.0,0.0,0.0,0.0,,,,-0.00449639651924,0.0630707144737,0.0965628996491,0,0,0.0,0.0,0.300000011921,0,77,,,,,,,,,,,,,,,,,,,,,,,,,,,,,,,,,11.389714241,11.616186142,-1.0,-1.0,,,,,,,,,,,,,,,,,,,,,,,,,,,,,,,,,,,,,,,,,,,,,,,,,,,,,,,,,,,,,,,,,,,,,,,,,,,,,,,,,,,,,,,,,,,,,,,,,,,,,,,444861798,PX4FMU_V1,251760679a4bed86fdb10746062fde2cc23e460f,test,305419904.0
0.00156812439673,-0.0130891688168,-2.24490904808,0.0273676738143,-0.0399013906717,-0.00440222024918,-0.476769983768,0.110015720129,-9.95294952393,0.0180551316589,0.0,-2.15524029732,0.299492388964,-0.476769983768,0.110015720129,-9.95294952393,0.0246810726821,-0.0394356884062,-0.02130138129,-0.102044671774,0.126869499683,0.399534910917,1019.40997314,-51.150894165,36.8999977112,0.0,0.0,-12.6052703857,-2.14062190056,-0.312136173248,0.718835711479,1.49755716324,-3.58192300797,3.90057015419,-0.0607920624316,0.0,0.0,0.0,10,0,0,20.0387706757,3.20397114754,,,,,,,,,,,,,,,,,,,,0.00711209652945,0.0147450650111,0.0153695531189,0.299492388964,0,2,0,0.945229828358,0,0,0.0295566506684,-0.0,0.299492388964,0.0272277221084,-0.99816006422,0.776942372322,-0.998161792755,0.0,7,0,151.0,161.0,140.0,158.0,0.0,0.0,0.0,0.0,,,,0.0820761099458,0.0735221877694,0.0980614647269,0,0,0.0,0.0,0.300000011921,0,77,,,,,,,,,,,,,,,,,,,,,,,,,,,,,,,,,11.3980951309,11.6157426834,-1.0,-1.0,,,,,,,,,,,,,,,,,,,,,,,,,,,,,,,,,,,,,,,,,,,,,,,,,,,,,,,,,,,,,,,,,,,,,,,,,,,,,,,,,,,,,,,,,,,,,,,,,,,,,,,444883221,PX4FMU_V1,251760679a4bed86fdb10746062fde2cc23e460f,test,305419904.0
0.00207803491503,-0.0134761100635,-2.24368834496,0.00851839035749,-0.0135510666296,0.0223459489644,-0.814967811108,-0.221758276224,-9.48986244202,0.0466424264014,0.0,-2.15410542488,0.305837571621,-0.814967811108,-0.221758276224,-9.48986244202,-0.0225392188877,0.00416015880182,0.0412232019007,-0.0855318233371,0.14517866075,0.388853609562,1019.40997314,-51.150894165,36.8999977112,0.0,0.0,-12.6052703857,-2.14062190056,-0.309812039137,0.718835711479,1.49755716324,-3.58192300797,3.90057015419,-0.0605416968465,0.0,0.0,0.0,10,0,0,20.0387706757,3.20409178734,,,,,,,,,,,,,,,,,,,,0.0277395155281,0.0132267531008,0.0112870372832,0.305837571621,0,2,0,0.945229828358,0,0,0.0763546824455,-0.0,0.305837571621,0.0272277221084,-0.99816006422,0.776942372322,-0.998161792755,0.0,7,0,159.0,159.0,139.0,165.0,0.0,0.0,0.0,0.0,,,,0.221899285913,0.088193193078,0.0975928604603,-1,21,0.0220017060637,-0.267052263021,0.300000011921,67,77,,,,,,,,,,,,,,,,,,,,,,,,,,,,,,,,,11.3561906815,11.6152153015,-1.0,-1.0,,,,,,,,,,,,,,,,,,,,,,,,,,,,,,,,,,,,,,,,,,,,,,,,,,,,,,,,,,,,,,,,,,,,,,,,,,,,,,,,,,,,,,,,,,,,,,,,,,,,,,,444905145,PX4FMU_V1,251760679a4bed86fdb10746062fde2cc23e460f,test,305419904.0
0.00192690407857,-0.0131098190323,-2.24373459816,-0.0230454355478,0.0269825048745,-0.00459210760891,-0.232773244381,-0.279722571373,-9.74501037598,0.0616883672774,0.0,-2.15295743942,0.312182754278,-0.232773244381,-0.279722571373,-9.74501037598,-0.0433517731726,0.0278249531984,0.007104777731,-0.113970600069,0.119379386306,0.394194245338,1019.41998291,-51.2337265015,36.8800010681,0.0,0.0,-12.6052703857,-2.14062190056,-0.307820081711,0.718835711479,1.49755716324,-3.58192300797,3.90057015419,-0.0612061060965,0.0,0.0,0.0,10,0,0,20.0387706757,3.2042119503,,,,,,,,,,,,,,,,,,,,0.041678018868,0.00863739755005,0.0154689708725,0.312182754278,0,2,0,0.945229828358,0,0,0.100985221565,-0.0,0.312182754278,0.0272277221084,-1.0,0.776942372322,-0.998161792755,0.0,7,0,164.0,158.0,138.0,175.0,0.0,0.0,0.0,0.0,,,,0.297554731369,0.0934240296483,0.098534360528,0,-2,-0.00291852816008,0.0211597178131,0.300000011921,0,77,,,,,,,,,,,,,,,,,,,,,,,,,,,,,,,,,11.3645715714,11.6147222519,-1.0,-1.0,,,,,,,,,,,,,,,,,,,,,,,,,,,,,,,,,,,,,,,,,,,,,,,,,,,,,,,,,,,,,,,,,,,,,,,,,,,,,,,,,,,,,,,,,,,,,,,,,,,,,,,444926545,PX4FMU_V1,251760679a4bed86fdb10746062fde2cc23e460f,test,305419904.0
0.00107698503416,-0.0123888934031,-2.24413299561,-0.0172096043825,0.0224916301668,0.000925658270717,-0.00375795736909,0.105780303478,-9.82750225067,0.0722205266356,0.0,-2.15158939362,0.313451766968,-0.00375795736909,0.105780303478,-9.82750225067,0.00190980231855,0.00887749157846,0.0110377538949,-0.113970600069,0.128533959389,0.399534910917,1019.39996338,-51.0680618286,36.8800010681,0.0,0.0,-12.6052703857,-2.14062190056,-0.306356191635,0.718835711479,1.49755716324,-3.58192300797,3.90057015419,-0.0611127912998,0.0,0.0,0.0,10,0,0,20.0387706757,3.20433139801,,,,,,,,,,,,,,,,,,,,0.0482822470367,0.00945277139544,0.0148787703365,0.313451766968,0,2,0,0.945229828358,0,0,0.118226602674,-0.0,0.313451766968,0.0272277221084,-1.0,0.776942372322,-0.998161792755,0.0,7,0,166.0,157.0,137.0,178.0,0.0,0.0,0.0,0.0,,,,0.354192316532,0.0952052623034,0.100117459893,-11,0,0.14485616982,-0.000504326773807,0.300000011921,43,77,,,,,,,,,,,,,,,,,,,,,,,,,,,,,,,,,11.3561906815,11.6141881943,-1.0,-1.0,,,,,,,,,,,,,,,,,,,,,,,,,,,,,,,,,,,,,,,,,,,,,,,,,,,,,,,,,,,,,,,,,,,,,,,,,,,,,,,,,,,,,,,,,,,,,,,,,,,,,,,444948841,PX4FMU_V1,251760679a4bed86fdb10746062fde2cc23e460f,test,305419904.0
0.00126107374672,-0.0125633124262,-2.24406385422,0.0420899949968,-0.0276034716517,-0.0026086512953,0.482976555824,0.0675742700696,-10.136633873,0.0722205266356,0.0,-2.1504483223,0.313451766968,0.482976555824,0.0675742700696,-10.136633873,0.0760021805763,-0.0437210202217,-0.0570444390178,-0.105714179575,0.12603725493,0.397754698992,1019.41998291,-51.2337265015,36.8800010681,0.0,0.0,-12.6052703857,-2.14062190056,-0.304937511683,0.718835711479,1.49755716324,-3.58192300797,3.90057015419,-0.0582366399467,0.0,0.0,0.0,10,0,0,20.0387706757,3.20439243317,,,,,,,,,,,,,,,,,,,,0.0404490455985,0.0161283593625,0.0155676491559,0.313451766968,0,2,0,0.945229828358,0,0,0.118226602674,-0.0,0.313451766968,0.0272277221084,-1.0,0.776942372322,-0.998161792755,0.0,7,0,166.0,161.0,137.0,174.0,0.0,0.0,0.0,0.0,,,,0.353236526251,0.0964608415961,0.101175673306,0,0,0.0,0.0,0.300000011921,0,77,,,,,,,,,,,,,,,,,,,,,,,,,,,,,,,,,11.3645715714,11.6139383316,-1.0,-1.0,,,,,,,,,,,,,,,,,,,,,,,,,,,,,,,,,,,,,,,,,,,,,,,,,,,,,,,,,,,,,,,,,,,,,,,,,,,,,,,,,,,,,,,,,,,,,,,,,,,,,,,444969647,PX4FMU_V1,251760679a4bed86fdb10746062fde2cc23e460f,test,305419904.0
0.00247182650492,-0.013483311981,-2.24379563332,0.0695360302925,-0.0595902241766,0.0117439497262,0.574761390686,0.261050581932,-9.97797584534,0.0812480896711,0.0,-2.14936757088,0.315989851952,0.574761390686,0.261050581932,-9.97797584534,0.0661460012197,-0.0665242448449,-0.0224256291986,-0.101127289236,0.127701729536,0.405765652657,1019.38995361,-50.9852256775,36.8699989319,0.0,0.0,-12.6052703857,-2.14062190056,-0.301667779684,0.718835711479,1.49755716324,-3.58192300797,3.90057015419,-0.0566736645997,0.0,0.0,0.0,10,0,0,20.0387706757,3.20451235771,,,,,,,,,,,,,,,,,,,,0.0419332496822,0.0214703083038,0.0133828772232,0.315989851952,0,2,0,0.942459106445,0,0,0.133004918694,-0.0,0.315989851952,0.0247524753213,-0.99816006422,0.776942372322,-0.998161792755,0.0,7,0,171.0,160.0,139.0,172.0,0.0,0.0,0.0,0.0,,,,0.392099499702,0.105566002429,0.100963123143,0,0,0.0,0.0,0.300000011921,0,77,,,,,,,,,,,,,,,,,,,,,,,,,,,,,,,,,11.3645715714,11.6134405136,-1.0,-1.0,,,,,,,,,,,,,,,,,,,,,,,,,,,,,,,,,,,,,,,,,,,,,,,,,,,,,,,,,,,,,,,,,,,,,,,,,,,,,,,,,,,,,,,,,,,,,,,,,,,,,,,444990929,PX4FMU_V1,251760679a4bed86fdb10746062fde2cc23e460f,test,305419904.0
0.00370440585539,-0.0147524308413,-2.24211144447,0.0240183919668,-0.039908580482,0.0225279871374,0.262496560812,0.10207169503,-9.67998886108,0.0827526822686,0.0,-2.14803481102,0.317258894444,0.262496560812,0.10207169503,-9.67998886108,0.000600750790909,-0.0261432342231,-0.00942076183856,-0.0864492058754,0.135191857815,0.40131509304,1019.40997314,-51.150894165,36.8699989319,0.0,0.0,-12.6052703857,-2.14062190056,-0.301245510578,0.718835711479,1.49755716324,-3.58192300797,3.90057015419,-0.0568865910172,0.0,0.0,0.0,10,0,0,20.0387706757,3.20463228226,,,,,,,,,,,,,,,,,,,,0.0480255261064,0.0198068879545,0.0118134049699,0.317258894444,0,2,0,0.942459106445,0,0,0.135467976332,-0.0,0.317258894444,0.0272277221084,-1.0,0.776942372322,-0.998161792755,0.0,7,0,174.0,160.0,139.0,173.0,0.0,0.0,0.0,0.0,,,,0.393445521593,0.112452089787,0.101284012198,0,0,0.0,0.0,0.300000011921,0,77,,,,,,,,,,,,,,,,,,,,,,,,,,,,,,,,,11.3645715714,11.6129426956,-1.0,-1.0,,,,,,,,,,,,,,,,,,,,,,,,,,,,,,,,,,,,,,,,,,,,,,,,,,,,,,,,,,,,,,,,,,,,,,,,,,,,,,,,,,,,,,,,,,,,,,,,,,,,,,,445012906,PX4FMU_V1,251760679a4bed86fdb10746062fde2cc23e460f,test,305419904.0
0.00391461141407,-0.0149251949042,-2.2425699234,-0.0154922297224,0.022249404341,0.0278912801296,-0.204178869724,0.215673208237,-9.49956035614,0.0842572823167,0.0,-2.14688205719,0.328680217266,-0.204178869724,0.215673208237,-9.49956035614,-0.045971725136,0.0441613681614,0.0502531118691,-0.0937882438302,0.151004299521,0.391523957253,1019.42999268,-51.3165588379,36.8600006104,0.0,0.0,-12.6052703857,-2.14062190056,-0.299100100994,0.718835711479,1.49755716324,-3.58192300797,3.90057015419,-0.0560910478234,0.0,0.0,0.0,10,0,0,20.0387706757,3.20475363731,,,,,,,,,,,,,,,,,,,,0.0539908409119,0.0120171643794,0.0112418550998,0.328680217266,0,2,0,0.942459106445,0,0,0.137931033969,-0.0,0.328680217266,0.0272277221084,-1.0,0.776942372322,-0.998161792755,0.0,7,0,177.0,164.0,144.0,183.0,0.0,0.0,0.0,0.0,,,,0.399821937084,0.114689134061,0.102836973965,0,0,0.0,0.0,0.300000011921,0,77,,,,,,,,,,,,,,,,,,,,,,,,,,,,,,,,,11.3645715714,11.6124382019,-1.0,-1.0,,,,,,,,,,,,,,,,,,,,,,,,,,,,,,,,,,,,,,,,,,,,,,,,,,,,,,,,,,,,,,,,,,,,,,,,,,,,,,,,,,,,,,,,,,,,,,,,,,,,,,,445034242,PX4FMU_V1,251760679a4bed86fdb10746062fde2cc23e460f,test,305419904.0
0.00288217631169,-0.0139389866963,-2.24389719963,-0.0628591477871,0.0668086409569,0.016190038994,-0.528643071651,0.161355316639,-9.50699615479,0.0827526822686,0.0,-2.1455180645,0.348984777927,-0.528643071651,0.161355316639,-9.50699615479,-0.0692056268454,0.0759912952781,0.0391927026212,-0.102044671774,0.111889265478,0.394194245338,1019.41998291,-51.2337265015,36.8600006104,0.0,0.0,-12.6052703857,-2.14062190056,-0.297037005424,0.718835711479,1.49755716324,-3.58192300797,3.90057015419,-0.0564575903118,0.0,0.0,0.0,10,0,0,20.0387706757,3.20487308502,,,,,,,,,,,,,,,,,,,,0.059831481427,0.00563681637868,0.013411577791,0.348984777927,0,2,0,0.942459106445,0,0,0.135467976332,-0.0,0.348984777927,0.0272277221084,-1.0,0.776942372322,-0.998161792755,0.0,7,0,186.0,172.0,153.0,198.0,0.0,0.0,0.0,0.0,,,,0.397383034229,0.110168769956,0.105600550771,11,34,-0.13575462997,-0.421845257282,0.300000011921,0,77,,,,,,,,,,,,,,,,,,,,,,,,,,,,,,,,,11.2472381592,11.6117744446,-1.0,-1.0,,,,,,,,,,,,,,,,,,,,,,,,,,,,,,,,,,,,,,,,,,,,,,,,,,,,,,,,,,,,,,,,,,,,,,,,,,,,,,,,,,,,,,,,,,,,,,,,,,,,,,,445057200,PX4FMU_V1,251760679a4bed86fdb10746062fde2cc23e460f,test,305419904.0
0.001978531247,-0.0131336655468,-2.24418234825,-0.0339876636863,0.0303559359163,0.0114988479763,-1.26042926311,0.0596541017294,-9.74896621704,0.0842572823167,0.0,-2.14438176155,0.366751283407,-1.26042926311,0.0596541017294,-9.74896621704,-0.0126719549298,0.0260524880141,0.0641852319241,-0.109383709729,0.135191857815,0.403985440731,1019.41998291,-51.2337265015,36.8600006104,0.0,0.0,-12.6052703857,-2.14062190056,-0.295659691095,0.718835711479,1.49755716324,-3.58192300797,3.90057015419,-0.0578401945531,0.0,0.0,0.0,10,0,0,20.0387706757,3.20493268967,,,,,,,,,,,,,,,,,,,,0.0576308332384,0.0100265620276,0.014328003861,0.366751283407,0,2,0,0.942459106445,0,0,0.137931033969,-0.0,0.366751283407,0.0272277221084,-1.0,0.776942372322,-0.996323525906,0.0,7,0,196.0,182.0,162.0,206.0,0.0,0.0,0.0,0.0,,,,0.409326434135,0.10748334229,0.107018865645,0,6,0.007267201785,-0.0804865136743,0.300000011921,0,77,,,,,,,,,,,,,,,,,,,,,,,,,,,,,,,,,11.2556190491,11.6114187241,-1.0,-1.0,,,,,,,,,,,,,,,,,,,,,,,,,,,,,,,,,,,,,,,,,,,,,,,,,,,,,,,,,,,,,,,,,,,,,,,,,,,,,,,,,,,,,,,,,,,,,,,,,,,,,,,445078810,PX4FMU_V1,251760679a4bed86fdb10746062fde2cc23e460f,test,305419904.0
0.00203236937523,-0.0131892533973,-2.24325442314,0.0319977551699,-0.0282485093921,0.0366663299501,-1.44194638729,-0.0281262919307,-10.037147522,0.0857618749142,0.0,-2.14300751686,0.374365478754,-1.44194638729,-0.0281262919307,-10.037147522,0.0435082279146,-0.0261214599013,0.0665042251348,-0.107548944652,0.138520792127,0.404875546694,1019.38000488,-50.9023895264,36.8400001526,0.0,0.0,-12.6052703857,-2.14062190056,-0.292454481125,0.718835711479,1.49755716324,-3.58192300797,3.90057015419,-0.0560588911176,0.0,0.0,0.0,10,0,0,20.0387706757,3.20505285263,,,,,,,,,,,,,,,,,,,,0.0499885119498,0.0178026240319,0.0106132691726,0.374365478754,0,2,0,0.942459106445,0,0,0.140394091606,-0.0,0.374365478754,0.0272277221084,-1.0,0.776942372322,-0.998161792755,0.0,7,0,201.0,189.0,166.0,206.0,0.0,0.0,0.0,0.0,,,,0.416524767876,0.108694761992,0.107421457767,0,0,0.0,0.0,0.300000011921,0,77,,,,,,,,,,,,,,,,,,,,,,,,,,,,,,,,,11.2975234985,11.6106987,-1.0,-1.0,,,,,,,,,,,,,,,,,,,,,,,,,,,,,,,,,,,,,,,,,,,,,,,,,,,,,,,,,,,,,,,,,,,,,,,,,,,,,,,,,,,,,,,,,,,,,,,,,,,,,,,445101087,PX4FMU_V1,251760679a4bed86fdb10746062fde2cc23e460f,test,305419904.0
0.00292109395377,-0.013985847123,-2.24348902702,0.0526118129492,-0.0642041414976,0.0126031795517,-1.29481959343,-0.148343876004,-9.82612895966,0.0857618749142,0.0,-2.1418607235,0.378172576427,-1.29481959343,-0.148343876004,-9.82612895966,0.0479715690017,-0.0606195293367,0.0344643853605,-0.103879407048,0.127701729536,0.393304169178,1019.40997314,-51.150894165,36.8400001526,0.0,0.0,-12.6052703857,-2.14062190056,-0.292769193649,0.718835711479,1.49755716324,-3.58192300797,3.90057015419,-0.057517491281,0.0,0.0,0.0,10,0,0,20.0387706757,3.20517373085,,,,,,,,,,,,,,,,,,,,0.0467237308621,0.0230696070939,0.0144217424095,0.378172576427,0,2,0,0.942459106445,0,0,0.140394091606,-0.0,0.378172576427,0.0272277221084,-1.0,0.776942372322,-0.998161792755,0.0,7,0,203.0,194.0,167.0,206.0,0.0,0.0,0.0,0.0,,,,0.412025123835,0.113254375756,0.10874812305,-6,-26,0.0834830179811,0.329436153173,0.300000011921,47,77,,,,,,,,,,,,,,,,,,,,,,,,,,,,,,,,,11.2807617188,11.6100215912,-1.0,-1.0,,,,,,,,,,,,,,,,,,,,,,,,,,,,,,,,,,,,,,,,,,,,,,,,,,,,,,,,,,,,,,,,,,,,,,,,,,,,,,,,,,,,,,,,,,,,,,,,,,,,,,,445121949,PX4FMU_V1,251760679a4bed86fdb10746062fde2cc23e460f,test,305419904.0
0.00375406257808,-0.0146438153461,-2.24410939217,0.0397291779518,-0.0409758388996,3.13576310873e-05,-0.499506294727,-0.207941144705,-9.77636814117,0.0872664749622,0.0,-2.14072465897,0.378172576427,-0.499506294727,-0.207941144705,-9.77636814117,0.0236871372908,-0.0404551848769,0.0174605026841,-0.109383709729,0.126869499683,0.403095304966,1019.44995117,-51.4822235107,36.8199996948,0.0,0.0,-12.6052703857,-2.14062190056,-0.289801627398,0.718835711479,1.49755716324,-3.58192300797,3.90057015419,-0.0569722279906,0.0,0.0,0.0,10,0,0,20.0387706757,3.20529341698,,,,,,,,,,,,,,,,,,,,0.0488203465939,0.0206736661494,0.0165572762489,0.378172576427,0,2,0,0.942459106445,0,0,0.142857149243,-0.0,0.378172576427,0.0272277221084,-1.0,0.776942372322,-0.998161792755,0.0,7,0,201.0,194.0,166.0,208.0,0.0,0.0,0.0,0.0,,,,0.415270328522,0.118052355945,0.110413193703,0,0,0.0,0.0,0.300000011921,0,77,,,,,,,,,,,,,,,,,,,,,,,,,,,,,,,,,11.2975234985,11.6093893051,-1.0,-1.0,,,,,,,,,,,,,,,,,,,,,,,,,,,,,,,,,,,,,,,,,,,,,,,,,,,,,,,,,,,,,,,,,,,,,,,,,,,,,,,,,,,,,,,,,,,,,,,,,,,,,,,445143104,PX4FMU_V1,251760679a4bed86fdb10746062fde2cc23e460f,test,305419904.0
0.00449408497661,-0.0150091927499,-2.24551963806,0.0320541746914,-0.00914812274277,-0.00257515721023,-0.660001397133,0.0667496398091,-9.76894950867,0.0872664749622,0.0,-2.13934779167,0.378172576427,-0.660001397133,0.0667496398091,-9.76894950867,0.0213649906218,-0.0145623777062,0.0294617526233,-0.119474872947,0.126869499683,0.397754698992,1019.39996338,-51.0680618286,36.8199996948,0.0,0.0,-12.6052703857,-2.14062190056,-0.290263533592,0.718835711479,1.49755716324,-3.58192300797,3.90057015419,-0.0579086318612,0.0,0.0,0.0,10,0,0,20.0387706757,3.20541453362,,,,,,,,,,,,,,,,,,,,0.0493208989501,0.0169298350811,0.0173592977226,0.378172576427,0,2,0,0.942459106445,0,0,0.142857149243,-0.0,0.378172576427,0.0272277221084,-1.0,0.776942372322,-0.998161792755,0.0,7,0,199.0,194.0,166.0,211.0,0.0,0.0,0.0,0.0,,,,0.411445736885,0.121081382036,0.113153487444,0,0,0.0,0.0,0.300000011921,0,77,,,,,,,,,,,,,,,,,,,,,,,,,,,,,,,,,11.3059043884,11.6087741852,-1.0,-1.0,,,,,,,,,,,,,,,,,,,,,,,,,,,,,,,,,,,,,,,,,,,,,,,,,,,,,,,,,,,,,,,,,,,,,,,,,,,,,,,,,,,,,,,,,,,,,,,,,,,,,,,445165331,PX4FMU_V1,251760679a4bed86fdb10746062fde2cc23e460f,test,305419904.0
0.0050616171211,-0.01487292815,-2.24689507484,0.0204074271023,0.000371984730009,-0.0128973424435,0.117310658097,-0.493615269661,-9.79185962677,0.0977986305952,0.0,-2.13821315765,0.378172576427,0.117310658097,-0.493615269661,-9.79185962677,-0.000308222486638,-0.0172060132027,0.0185205563903,-0.11305321753,0.120211623609,0.405765652657,1019.39996338,-51.0680618286,36.8199996948,0.0,0.0,-12.6052703857,-2.14062190056,-0.289937227964,0.718835711479,1.49755716324,-3.58192300797,3.90057015419,-0.0576255209744,0.0,0.0,0.0,10,0,0,20.0387706757,3.20547509193,,,,,,,,,,,,,,,,,,,,0.0572573840618,0.0164811499417,0.0192352440208,0.378172576427,0,2,0,0.938975036144,0,0,0.160098522902,-0.0,0.378172576427,0.0272277221084,-1.0,0.776942372322,-0.998161792755,0.0,7,0,200.0,193.0,163.0,214.0,0.0,0.0,0.0,0.0,,,,0.460848867893,0.127150058746,0.115337610245,0,0,0.0,0.0,0.300000011921,0,77,,,,,,,,,,,,,,,,,,,,,,,,,,,,,,,,,11.2975234985,11.6084632874,-1.0,-1.0,,,,,,,,,,,,,,,,,,,,,,,,,,,,,,,,,,,,,,,,,,,,,,,,,,,,,,,,,,,,,,,,,,,,,,,,,,,,,,,,,,,,,,,,,,,,,,,,,,,,,,,445186475,PX4FMU_V1,251760679a4bed86fdb10746062fde2cc23e460f,test,305419904.0
0.0048547857441,-0.0150190014392,-2.2479994297,-0.0226479340345,-0.0028945398517,-0.017715100199,0.45022046566,-0.615811526775,-9.93226623535,0.111339978874,0.0,-2.13706684113,0.381979703903,0.45022046566,-0.615811526775,-9.93226623535,-0.0252903848886,-0.00316829746589,-0.0174179766327,-0.104796789587,0.133527368307,0.408435970545,1019.44000244,-51.3993911743,36.8099975586,0.0,0.0,-12.6052703857,-2.14062190056,-0.28707575798,0.718835711479,1.49755716324,-3.58192300797,3.90057015419,-0.0554002411664,0.0,0.0,0.0,10,0,0,20.0387706757,3.20559549332,,,,,,,,,,,,,,,,,,,,0.0717226788402,0.0181074943393,0.020225899294,0.381979703903,0,2,0,0.938975036144,0,0,0.182266011834,-0.0,0.381979703903,0.0272277221084,-1.0,0.776942372322,-0.998161792755,0.0,7,0,207.0,191.0,161.0,218.0,0.0,0.0,0.0,0.0,,,,0.529065012932,0.136393889785,0.11712422967,-9,21,0.113668054342,-0.266629844904,0.300000011921,0,77,,,,,,,,,,,,,,,,,,,,,,,,,,,,,,,,,11.3059043884,11.6078586578,-1.0,-1.0,,,,,,,,,,,,,,,,,,,,,,,,,,,,,,,,,,,,,,,,,,,,,,,,,,,,,,,,,,,,,,,,,,,,,,,,,,,,,,,,,,,,,,,,,,,,,,,,,,,,,,,445207700,PX4FMU_V1,251760679a4bed86fdb10746062fde2cc23e460f,test,305419904.0
0.00389897380956,-0.0147563228384,-2.2486975193,-0.0271347891539,0.0281333141029,-0.0280879586935,0.20335753262,-0.262024253607,-9.87052059174,0.114349164069,0.0,-2.13568782806,0.38959389925,0.20335753262,-0.262024253607,-9.87052059174,-0.0111253261566,0.0307896044105,-0.0234664008021,-0.0965403690934,0.126869499683,0.393304169178,1019.41998291,-51.2337265015,36.8099975586,0.0,0.0,-12.6052703857,-2.14062190056,-0.283451229334,0.718835711479,1.49755716324,-3.58192300797,3.90057015419,-0.055128455162,0.0,0.0,0.0,10,0,0,20.0387706757,3.20571494102,,,,,,,,,,,,,,,,,,,,0.0748540237546,0.0142721608281,0.0220781303942,0.38959389925,0,2,0,0.938975036144,0,0,0.187192112207,-0.0,0.38959389925,0.0272277221084,-1.0,0.776942372322,-0.998161792755,0.0,7,0,213.0,191.0,165.0,223.0,0.0,0.0,0.0,0.0,,,,0.54866540432,0.137919172645,0.119099572301,0,0,0.0,0.0,0.300000011921,0,77,,,,,,,,,,,,,,,,,,,,,,,,,,,,,,,,,11.2723808289,11.6072053909,-1.0,-1.0,,,,,,,,,,,,,,,,,,,,,,,,,,,,,,,,,,,,,,,,,,,,,,,,,,,,,,,,,,,,,,,,,,,,,,,,,,,,,,,,,,,,,,,,,,,,,,,,,,,,,,,445229346,PX4FMU_V1,251760679a4bed86fdb10746062fde2cc23e460f,test,305419904.0
0.00335086858831,-0.0139686344191,-2.2481918335,-0.00667423987761,0.0499477162957,-0.022781888023,0.0756776854396,-0.677709639072,-9.87365722656,0.120367541909,0.0,-2.1345448494,0.38832488656,0.0756776854396,-0.677709639072,-9.87365722656,0.02627248317,0.0479825399816,-0.0463678501546,-0.102044671774,0.125205025077,0.40131509304,1019.40997314,-51.150894165,36.7999992371,0.0,0.0,-12.6052703857,-2.14062190056,-0.281357735395,0.718835711479,1.49755716324,-3.58192300797,3.90057015419,-0.0587747655809,0.0,0.0,0.0,10,0,0,20.0387706757,3.20583558083,,,,,,,,,,,,,,,,,,,,0.0764317810535,0.0114131961018,0.0213526394218,0.38832488656,0,2,0,0.938975036144,0,0,0.197044327855,-0.0,0.38832488656,0.0272277221084,-1.0,0.776942372322,-0.998161792755,0.0,7,0,209.0,192.0,164.0,225.0,0.0,0.0,0.0,0.0,,,,0.581262588501,0.137741535902,0.119569033384,-9,39,0.0609136968851,-0.244672045112,0.300000011921,75,77,,,,,,,,,,,,,,,,,,,,,,,,,,,,,,,,,11.2807617188,11.6065359116,-1.0,-1.0,,,,,,,,,,,,,,,,,,,,,,,,,,,,,,,,,,,,,,,,,,,,,,,,,,,,,,,,,,,,,,,,,,,,,,,,,,,,,,,,,,,,,,,,,,,,,,,,,,,,,,,445250072,PX4FMU_V1,251760679a4bed86fdb10746062fde2cc23e460f,test,305419904.0
0.00290261860937,-0.013270852156,-2.24706244469,-0.0183681957424,0.0271415524185,-0.0154340565205,0.457295209169,0.0639993175864,-10.0089263916,0.120367541909,0.0,-2.13341569901,0.38832488656,0.457295209169,0.0639993175864,-10.0089263916,0.0020476935897,0.0103890728205,-0.0724031105638,-0.0892013311386,0.136024072766,0.392414063215,1019.41998291,-51.2337265015,36.7999992371,0.0,0.0,-12.6052703857,-2.14062190056,-0.281089991331,0.718835711479,1.49755716324,-3.58192300797,3.90057015419,-0.0565598458052,0.0,0.0,0.0,10,0,0,20.0387706757,3.20589566231,,,,,,,,,,,,,,,,,,,,0.0782427638769,0.013926952146,0.0202576741576,0.38832488656,0,2,0,0.938975036144,0,0,0.197044327855,-0.0,0.38832488656,0.0272277221084,-1.0,0.776942372322,-0.998161792755,0.0,7,0,213.0,188.0,166.0,222.0,0.0,0.0,0.0,0.0,,,,0.583499252796,0.134271964431,0.11961709708,6,20,-0.0821077749133,-0.251480519772,0.300000011921,0,77,,,,,,,,,,,,,,,,,,,,,,,,,,,,,,,,,11.2891426086,11.606218338,-1.0,-1.0,,,,,,,,,,,,,,,,,,,,,,,,,,,,,,,,,,,,,,,,,,,,,,,,,,,,,,,,,,,,,,,,,,,,,,,,,,,,,,,,,,,,,,,,,,,,,,,,,,,,,,,445271144,PX4FMU_V1,251760679a4bed86fdb10746062fde2cc23e460f,test,305419904.0
0.00237558688968,-0.013237872161,-2.24747347832,-0.0211037322879,-0.0187952872366,-0.0115635497496,-0.116626784205,0.0649961680174,-9.86215114594,0.127890512347,0.0,-2.13203525543,0.402284264565,-0.116626784205,0.0649961680174,-9.86215114594,0.00612163869664,-0.0297922678292,-0.0501467436552,-0.10846632719,0.136024072766,0.395084351301,1019.44000244,-51.3993911743,36.7900009155,0.0,0.0,-12.6052703857,-2.14062190056,-0.278532743454,0.718835711479,1.49755716324,-3.58192300797,3.90057015419,-0.0570200197399,0.0,0.0,0.0,10,0,0,20.0387706757,3.20601582527,,,,,,,,,,,,,,,,,,,,0.0837830975652,0.0205747820437,0.0199016369879,0.402284264565,0,2,0,0.938975036144,0,0,0.20935960114,-0.0,0.402284264565,0.0272277221084,-1.0,0.776942372322,-0.996323525906,0.0,7,0,223.0,196.0,169.0,230.0,0.0,0.0,0.0,0.0,,,,0.62338167429,0.139472275972,0.121114015579,0,0,0.0,0.0,0.300000011921,0,77,,,,,,,,,,,,,,,,,,,,,,,,,,,,,,,,,11.2891426086,11.6055850983,-1.0,-1.0,,,,,,,,,,,,,,,,,,,,,,,,,,,,,,,,,,,,,,,,,,,,,,,,,,,,,,,,,,,,,,,,,,,,,,,,,,,,,,,,,,,,,,,,,,,,,,,,,,,,,,,445293579,PX4FMU_V1,251760679a4bed86fdb10746062fde2cc23e460f,test,305419904.0
0.00240408210084,-0.0135769536719,-2.24840950966,0.0156388487667,-0.0147442976013,0.0112290345132,0.0485721565783,0.613154530525,-9.7679643631,0.133908897638,0.0,-2.13089156151,0.416243642569,0.0485721565783,0.613154530525,-9.7679643631,0.0342501923442,-0.00538084656,-0.0262767225504,-0.0947056040168,0.114385969937,0.404875546694,1019.40997314,-51.150894165,36.7900009155,0.0,0.0,-12.6052703857,-2.14062190056,-0.276024222374,0.718835711479,1.49755716324,-3.58192300797,3.90057015419,-0.0577117390931,0.0,0.0,0.0,10,0,0,20.0387706757,3.20613598824,,,,,,,,,,,,,,,,,,,,0.0828539580107,0.0208930186927,0.0167509745806,0.416243642569,0,2,0,0.938975036144,0,0,0.219211816788,-0.0,0.416243642569,0.0272277221084,-1.0,0.776942372322,-0.996323525906,0.0,7,0,232.0,203.0,178.0,235.0,0.0,0.0,0.0,0.0,,,,0.652976989746,0.145971238613,0.122902192175,0,0,0.0,0.0,0.300000011921,0,77,,,,,,,,,,,,,,,,,,,,,,,,,,,,,,,,,11.2304763794,11.6048269272,-1.0,-1.0,,,,,,,,,,,,,,,,,,,,,,,,,,,,,,,,,,,,,,,,,,,,,,,,,,,,,,,,,,,,,,,,,,,,,,,,,,,,,,,,,,,,,,,,,,,,,,,,,,,,,,,445314483,PX4FMU_V1,251760679a4bed86fdb10746062fde2cc23e460f,test,305419904.0
0.00342604378238,-0.0136721814051,-2.24945640564,0.0439493991435,-0.00385288218968,-0.00117254257202,0.595982313156,0.318972051144,-9.75482177734,0.135413482785,0.0,-2.12974762917,0.446700513363,0.595982313156,0.318972051144,-9.75482177734,0.010256851092,-0.00812526606023,-0.0428827218711,-0.112135834992,0.130198433995,0.411106288433,1019.40997314,-51.150894165,36.7900009155,0.0,0.0,-12.6052703857,-2.14062190056,-0.274557769299,0.718835711479,1.49755716324,-3.58192300797,3.90057015419,-0.0586627982557,0.0,0.0,0.0,10,0,0,20.0387706757,3.2062561512,,,,,,,,,,,,,,,,,,,,0.0794583112001,0.0198427196592,0.0189215540886,0.446700513363,0,2,0,0.938975036144,0,0,0.221674874425,-0.0,0.446700513363,0.0272277221084,-1.0,0.776942372322,-0.998161792755,0.0,7,0,243.0,222.0,192.0,252.0,0.0,0.0,0.0,0.0,,,,0.655167222023,0.148783415556,0.124971158803,0,0,0.0,0.0,0.300000011921,0,77,,,,,,,,,,,,,,,,,,,,,,,,,,,,,,,,,11.0963811874,11.6039028168,-1.0,-1.0,,,,,,,,,,,,,,,,,,,,,,,,,,,,,,,,,,,,,,,,,,,,,,,,,,,,,,,,,,,,,,,,,,,,,,,,,,,,,,,,,,,,,,,,,,,,,,,,,,,,,,,445335863,PX4FMU_V1,251760679a4bed86fdb10746062fde2cc23e460f,test,305419904.0
0.00353846466169,-0.0135025717318,-2.25064277649,-0.0496583431959,0.0181914307177,-0.0160483252257,-0.2550162673,0.185532182455,-9.79006385803,0.135413482785,0.0,-2.12837910652,0.446700513363,-0.2550162673,0.185532182455,-9.79006385803,-0.100828327239,0.0275864340365,-0.0272057317197,-0.0983751341701,0.12603725493,0.402205199003,1019.39996338,-51.0680618286,36.7900009155,0.0,0.0,-12.6052703857,-2.14062190056,-0.275428205729,0.718835711479,1.49755716324,-3.58192300797,3.90057015419,-0.0576359927654,0.0,0.0,0.0,10,0,0,20.0387706757,3.20637607574,,,,,,,,,,,,,,,,,,,,0.0915271267295,0.0170905254781,0.02153060399,0.446700513363,0,2,0,0.938975036144,0,0,0.221674874425,-0.0,0.446700513363,0.0272277221084,-1.0,0.776942372322,-0.998161792755,0.0,7,0,244.0,219.0,189.0,257.0,0.0,0.0,0.0,0.0,,,,0.654396474361,0.149657011032,0.127489030361,0,0,0.0,0.0,0.300000011921,0,77,,,,,,,,,,,,,,,,,,,,,,,,,,,,,,,,,11.205332756,11.603064537,-1.0,-1.0,,,,,,,,,,,,,,,,,,,,,,,,,,,,,,,,,,,,,,,,,,,,,,,,,,,,,,,,,,,,,,,,,,,,,,,,,,,,,,,,,,,,,,,,,,,,,,,,,,,,,,,445358880,PX4FMU_V1,251760679a4bed86fdb10746062fde2cc23e460f,test,305419904.0
0.00198241393082,-0.012709681876,-2.25108480453,-0.110678479075,0.066446736455,0.00754308700562,-0.217234522104,0.755717158318,-9.9682226181,0.135413482785,0.0,-2.12731766701,0.47208121419,-0.217234522104,0.755717158318,-9.9682226181,-0.136556699872,0.0874994620681,0.0120705198497,-0.103879407048,0.135191857815,0.402205199003,1019.40997314,-51.150894165,36.7900009155,0.0,0.0,-12.6052703857,-2.14062190056,-0.274855136871,0.718835711479,1.49755716324,-3.58192300797,3.90057015419,-0.0579419247806,0.0,0.0,0.0,10,0,0,20.0387706757,3.20643591881,,,,,,,,,,,,,,,,,,,,0.100453995168,0.0104377856478,0.0181102063507,0.47208121419,0,2,0,0.938975036144,0,0,0.221674874425,-0.0,0.47208121419,0.0247524753213,-0.99816006422,0.776942372322,-0.998161792755,0.0,7,0,259.0,228.0,203.0,271.0,0.0,0.0,0.0,0.0,,,,0.662044584751,0.146737396717,0.128277793527,0,0,0.0,0.0,0.300000011921,0,77,,,,,,,,,,,,,,,,,,,,,,,,,,,,,,,,,11.205332756,11.6022777557,-1.0,-1.0,,,,,,,,,,,,,,,,,,,,,,,,,,,,,,,,,,,,,,,,,,,,,,,,,,,,,,,,,,,,,,,,,,,,,,,,,,,,,,,,,,,,,,,,,,,,,,,,,,,,,,,445380215,PX4FMU_V1,251760679a4bed86fdb10746062fde2cc23e460f,test,305419904.0
