ATT_Roll,ATT_Pitch,ATT_Yaw,ATT_RollRate,ATT_PitchRate,ATT_YawRate,ATT_GX,ATT_GY,ATT_GZ,ATSP_RollSP,ATSP_PitchSP,ATSP_YawSP,ATSP_ThrustSP,IMU_AccX,IMU_AccY,IMU_AccZ,IMU_GyroX,IMU_GyroY,IMU_GyroZ,IMU_MagX,IMU_MagY,IMU_MagZ,SENS_BaroPres,SENS_BaroAlt,SENS_BaroTemp,SENS_DiffPres,SENS_DiffPresFilt,LPOS_X,LPOS_Y,LPOS_Z,LPOS_VX,LPOS_VY,LPOS_VZ,LPOS_RefLat,LPOS_RefLon,LPOS_RefAlt,LPOS_XYFlags,LPOS_ZFlags,LPOS_Landed,LPSP_X,LPSP_Y,LPSP_Z,LPSP_Yaw,GPS_GPSTime,GPS_FixType,GPS_EPH,GPS_EPV,GPS_Lat,GPS_Lon,GPS_Alt,GPS_VelN,GPS_VelE,GPS_VelD,GPS_Cog,ATTC_Roll,ATTC_Pitch,ATTC_Yaw,ATTC_Thrust,STAT_MainState,STAT_ArmState,STAT_BatRem,STAT_BatWarn,STAT_Landed,RC_Ch0,RC_Ch1,RC_Ch2,RC_Ch3,RC_Ch4,RC_Ch5,RC_Ch6,RC_Ch7,RC_Count,OUT0_Out0,OUT0_Out1,OUT0_Out2,OUT0_Out3,OUT0_Out4,OUT0_Out5,OUT0_Out6,OUT0_Out7,AIRS_IndSpeed,AIRS_TrueSpeed,ARSP_RollRateSP,ARSP_PitchRateSP,ARSP_YawRateSP,FLOW_RawX,FLOW_RawY,FLOW_CompX,FLOW_CompY,FLOW_Dist,FLOW_Q,FLOW_SensID,GPOS_Lat,GPOS_Lon,GPOS_Alt,GPOS_VelN,GPOS_VelE,GPOS_VelD,GPOS_EPH,GPOS_EPV,GPSP_NavState,GPSP_Lat,GPSP_Lon,GPSP_Alt,GPSP_Yaw,GPSP_Type,GPSP_LoitR,GPSP_LoitDir,GPSP_PitMin,ESC_Counter,ESC_NumESC,ESC_Conn,ESC_N,ESC_Ver,ESC_Adr,ESC_Volt,ESC_Amp,ESC_RPM,ESC_Temp,ESC_SetP,ESC_SetPRAW,GVSP_VX,GVSP_VY,GVSP_VZ,BATT_V,BATT_VFilt,BATT_C,BATT_Discharged,DIST_Bottom,DIST_BottomRate,DIST_Flags,TELE_RSSI,TELE_RemRSSI,TELE_Noise,TELE_RemNoise,TELE_RXErr,TELE_Fixed,TELE_TXBuf,TIME_StartTime,VER_Arch,VER_FwGit,PARM_Name,PARM_Value,ESTM_s0,ESTM_s1,ESTM_s2,ESTM_s3,ESTM_s4,ESTM_s5,ESTM_s6,ESTM_s7,ESTM_s8,ESTM_s9,ESTM_n_states,ESTM_states_nan,ESTM_cov_nan,ESTM_kgain_
,,,,,,,,,,,,,,,,,,,,,,,,,,,,,,,,,,,,,,,,,,,,,,,,,,,,,,,,,,,,,,,,,,,,,,,,,,,,,,,,,,,,,,,,,,,,,,,,,,,,,,,,,,,,,,,,,,,,,,,,,,,,,,,,,,,,,,,,,,,PX4FMU_V1,unknown_git_version,test,305419904.0,,,,,,,,,,,,,,
0.0138566847891,-0.00361099815927,-1.68924641609,0.00144700414967,0.000976455863565,0.00514760660008,-0.0579732730985,-0.107541367412,-9.73346424103,0.0,-0.00153846165631,-1.689011693,0.0,-0.0579732730985,-0.107541367412,-9.73346424103,0.00123034440912,0.000948800239712,0.0048206509091,-0.0194804295897,0.178468048573,0.386183291674,1013.10998535,1.16544353962,31.1399993896,0.0,0.0,0.0,0.0,-0.328382998705,0.0,0.0,-0.0133765395731,0.0,0.0,0.0,0,3,1,,,,,,,,,,,,,,,,-0.0091947093606,0.00122025224846,-0.000739089562558,0.0,0,2,1.0,0,1,0.0,0.0025641026441,0.0,1.0,0.99816006422,0.937343358994,-0.998161792755,-2.47037157179e+14,7,10.0,10.0,10.0,10.0,0.0,0.0,0.0,0.0,,,-0.0692815259099,0.0103630116209,0.000220343208639,,,,,,,,,,,,,,,,,,,,,,,,,,,,,,,,,,,,,,,,11.8422851562,11.8496751785,-1.0,-1.0,,,,,,,,,,,83989271,PX4FMU_V1,unknown_git_version,test,305419904.0,,,,,,,,,,,,,,
0.0138622056693,-0.00360745750368,-1.6894288063,0.000936480471864,0.000978796975687,0.00484821340069,-0.0652810633183,-0.108257137239,-9.72479057312,0.0,0.0,-1.689011693,0.0,-0.0652810633183,-0.108257137239,-9.72479057312,0.000924681895413,0.00114210322499,0.00545525690541,-0.02223258093,0.184293702245,0.38440310955,1013.10998535,1.16544353962,31.1399993896,0.0,0.0,0.0,0.0,-0.326294541359,0.0,0.0,-0.0122371288016,0.0,0.0,0.0,0,3,1,,,,,,,,,,,,,,,,-0.00913213565946,0.00221767835319,-0.000668417895213,0.0,0,2,1.0,0,1,0.0,-0.0,0.0,1.0,1.0,0.937343358994,-0.998161792755,-2.47037157179e+14,7,10.0,10.0,10.0,10.0,0.0,0.0,0.0,0.0,,,-0.0693107247353,0.0180378630757,0.00039209422539,,,,,,,,,,,,,,,,,,,,,,,,,,,,,,,,,,,,,,,,11.8422851562,11.8496599197,-1.0,-1.0,,,,,,,,,,,84011574,PX4FMU_V1,unknown_git_version,test,305419904.0,,,,,,,,,,,,,,
0.0138551974669,-0.00360143859871,-1.68970727921,0.000482688657939,0.000612375210039,0.00476858159527,-0.0559169799089,-0.0873472616076,-9.73976230621,0.0,0.0,-1.689011693,0.0,-0.0559169799089,-0.0873472616076,-9.73976230621,0.000552482146304,0.000380642246455,0.00469767022878,-0.0231499485672,0.185125932097,0.388853609562,1013.09997559,1.24869441986,31.1399993896,0.0,0.0,0.0,0.0,-0.324217259884,0.0,0.0,-0.0112193729728,0.0,0.0,0.0,0,3,1,,,,,,,,,,,,,,,,-0.00906858872622,0.0022614011541,-0.000614687683992,0.0,0,2,1.0,0,1,0.0,-0.0,0.0,1.0,1.0,0.93483710289,-0.998161792755,-2.47037157179e+14,7,10.0,10.0,10.0,10.0,0.0,0.0,0.0,0.0,,,-0.0692756921053,0.0180077683181,0.000670664012432,,,,,,,,,,,,,,,,,,,,,,,,,,,,,,,,,,,,,,,,11.8339042664,11.8496446609,-1.0,-1.0,,,,,,,,,,,84032365,PX4FMU_V1,unknown_git_version,test,305419904.0,,,,,,,,,,,,,,
0.0138414045796,-0.0036127702333,-1.68980276585,0.000388193235267,0.000108272433863,0.00538407592103,-0.0555089339614,-0.10665756464,-9.71439170837,0.0,-0.00153846165631,-1.689011693,0.0,-0.0555089339614,-0.10665756464,-9.71439170837,0.000363607716281,0.00034164491808,0.00546842347831,-0.0231499485672,0.186790406704,0.388853609562,1013.09997559,1.24869441986,31.1399993896,0.0,0.0,0.0,0.0,-0.323140710592,0.0,0.0,-0.0107683781534,0.0,0.0,0.0,0,3,1,,,,,,,,,,,,,,,,-0.00904657226056,0.00133426755201,-0.00069110642653,0.0,0,2,1.0,0,1,0.0,0.0025641026441,0.0,1.0,0.99816006422,0.937343358994,-0.998161792755,-2.47037157179e+14,7,10.0,10.0,10.0,10.0,0.0,0.0,0.0,0.0,,,-0.0692008286715,0.0103718694299,0.00077669986058,,,,,,,,,,,,,,,,,,,,,,,,,,,,,,,,,,,,,,,,11.8422851562,11.8496294022,-1.0,-1.0,,,,,,,,,,,84054751,PX4FMU_V1,unknown_git_version,test,305419904.0,,,,,,,,,,,,,,
0.0138390194625,-0.00361221819185,-1.6899034977,0.00113623053767,0.00039859249955,0.00454880483449,-0.032768972218,-0.0780189186335,-9.72776794434,0.0,-0.00153846165631,-1.689011693,0.0,-0.032768972218,-0.0780189186335,-9.72776794434,0.00128758314531,0.000718055758625,0.00421840278432,-0.0194804295897,0.183461472392,0.387963503599,1013.11999512,1.08219325542,31.1399993896,0.0,0.0,0.0,0.0,-0.321409553289,0.0,0.0,-0.00994654931128,0.0,0.0,0.0,0,3,1,,,,,,,,,,,,,,,,-0.00914216693491,0.00129616807681,-0.000550703785848,0.0,0,2,1.0,0,1,0.0,0.0025641026441,0.0,1.0,0.99816006422,0.937343358994,-0.998161792755,-2.47037157179e+14,7,10.0,10.0,10.0,10.0,0.0,0.0,0.0,0.0,,,-0.0691881328821,0.0103691164404,0.000877446553204,,,,,,,,,,,,,,,,,,,,,,,,,,,,,,,,,,,,,,,,11.8422851562,11.8496217728,-1.0,-1.0,,,,,,,,,,,84075630,PX4FMU_V1,unknown_git_version,test,305419904.0,,,,,,,,,,,,,,
0.0138365002349,-0.00360766309313,-1.68976712227,0.00109559460543,0.000544477021322,0.00481537077576,-0.0547053851187,-0.0860009938478,-9.71756267548,0.0,0.0,-1.689011693,0.0,-0.0547053851187,-0.0860009938478,-9.71756267548,0.00107354356442,0.000391509674955,0.00530534051359,-0.0203978121281,0.192616045475,0.388853609562,1013.07000732,1.49845123291,31.1399993896,0.0,0.0,0.0,0.0,-0.320199251175,0.0,0.0,-0.00936297606677,0.0,0.0,0.0,0,3,1,,,,,,,,,,,,,,,,-0.00913611240685,0.00227427342907,-0.000612732954323,0.0,0,2,1.0,0,1,0.0,-0.0,0.0,1.0,1.0,0.937343358994,-0.998161792755,-2.47037157179e+14,7,10.0,10.0,10.0,10.0,0.0,0.0,0.0,0.0,,,-0.0691821947694,0.0180388893932,0.00073048484046,,,,,,,,,,,,,,,,,,,,,,,,,,,,,,,,,,,,,,,,11.8422851562,11.849606514,-1.0,-1.0,,,,,,,,,,,84096779,PX4FMU_V1,unknown_git_version,test,305419904.0,,,,,,,,,,,,,,
0.013837586157,-0.00361085520126,-1.68989098072,0.00140323385131,9.86904778983e-05,0.00455784890801,-0.0432313047349,-0.0763837099075,-9.71116256714,0.0,-0.00153846165631,-1.689011693,0.0,-0.0432313047349,-0.0763837099075,-9.71116256714,0.00162673857994,-1.69051290868e-05,0.00462193461135,-0.0240673329681,0.18845488131,0.39063385129,1013.07995605,1.41519832611,31.1399993896,0.0,0.0,0.0,0.0,-0.321445703506,0.0,0.0,-0.00999004393816,0.0,0.0,0.0,0,3,1,,,,,,,,,,,,,,,,-0.0091759590432,0.00133426953107,-0.000553936813958,0.0,0,2,1.0,0,1,0.0,0.0025641026441,0.0,1.0,0.99816006422,0.937343358994,-0.998161792755,-2.47037157179e+14,7,10.0,10.0,10.0,10.0,0.0,0.0,0.0,0.0,,,-0.0691810697317,0.0103623028845,0.000864936970174,,,,,,,,,,,,,,,,,,,,,,,,,,,,,,,,,,,,,,,,11.8506669998,11.8496084213,-1.0,-1.0,,,,,,,,,,,84118858,PX4FMU_V1,unknown_git_version,test,305419904.0,,,,,,,,,,,,,,
0.0138392727822,-0.00361058488488,-1.69015228748,0.00112648226786,0.000359678786481,0.00419639144093,-0.0502379760146,-0.0931957066059,-9.73805618286,0.0,-0.00153846165631,-1.689011693,0.0,-0.0502379760146,-0.0931957066059,-9.73805618286,0.000689292734023,0.000435949943494,0.00439562089741,-0.0240673329681,0.187622636557,0.388853609562,1013.04998779,1.66495919228,31.1399993896,0.0,0.0,0.0,0.0,-0.32353708148,0.0,0.0,-0.0109420297667,0.0,0.0,0.0,0,3,1,,,,,,,,,,,,,,,,-0.00914081651717,0.00130016554613,-0.000460522220237,0.0,0,2,1.0,0,1,0.0,0.0025641026441,0.0,1.0,0.99816006422,0.937343358994,-0.998161792755,-2.47037157179e+14,7,10.0,10.0,10.0,10.0,0.0,0.0,0.0,0.0,,,-0.0691874921322,0.0103609524667,0.00112624350004,,,,,,,,,,,,,,,,,,,,,,,,,,,,,,,,,,,,,,,,11.8506669998,11.8496017456,-1.0,-1.0,,,,,,,,,,,84140233,PX4FMU_V1,unknown_git_version,test,305419904.0,,,,,,,,,,,,,,
0.0138343451545,-0.00360864098184,-1.69028604031,0.000241889967583,0.000332031428115,0.00494000222534,-0.0460727252066,-0.0856822580099,-9.74577331543,0.0,-0.00153846165631,-1.689011693,0.0,-0.0460727252066,-0.0856822580099,-9.74577331543,-9.02304054762e-06,0.000168551923707,0.00523979775608,-0.02223258093,0.186790406704,0.387963503599,1013.07000732,1.49845123291,31.1399993896,0.0,0.0,0.0,0.0,-0.325827807188,0.0,0.0,-0.0121227344498,0.0,0.0,0.0,0,3,1,,,,,,,,,,,,,,,,-0.0090224808082,0.00130249571521,-0.000551993085537,0.0,0,2,1.0,0,1,0.0,0.0025641026441,0.0,1.0,1.0,0.937343358994,-0.998161792755,-2.47037157179e+14,7,10.0,10.0,10.0,10.0,0.0,0.0,0.0,0.0,,,-0.0691618099809,0.010351229459,0.00126004847698,,,,,,,,,,,,,,,,,,,,,,,,,,,,,,,,,,,,,,,,11.8506669998,11.8496026993,-1.0,-1.0,,,,,,,,,,,84161410,PX4FMU_V1,unknown_git_version,test,305419904.0,,,,,,,,,,,,,,
0.013822552748,-0.00360376038589,-1.69021046162,0.00112633581739,0.000985866645351,0.00503645278513,-0.0491447746754,-0.0988110303879,-9.73581123352,0.0,0.0,-1.689011693,0.0,-0.0491447746754,-0.0988110303879,-9.73581123352,0.0012344897259,0.0010858187452,0.00469924975187,-0.021315196529,0.190119341016,0.391523957253,1013.14996338,0.832446336746,31.1499996185,0.0,0.0,0.0,0.0,-0.322409182787,0.0,0.0,-0.010624030605,0.0,0.0,0.0,0,3,1,,,,,,,,,,,,,,,,-0.00913104321808,0.00221435585991,-0.000579382060096,0.0,0,2,1.0,0,1,0.0,-0.0,0.0,1.0,1.0,0.937343358994,-0.998161792755,-2.47037157179e+14,7,10.0,10.0,10.0,10.0,0.0,0.0,0.0,0.0,,,-0.0691124647856,0.01801937446,0.00117390614469,,,,,,,,,,,,,,,,,,,,,,,,,,,,,,,,,,,,,,,,11.8422851562,11.8495874405,-1.0,-1.0,,,,,,,,,,,84183201,PX4FMU_V1,unknown_git_version,test,305419904.0,,,,,,,,,,,,,,
0.0138282440603,-0.00360078574158,-1.69033122063,0.00151134328917,0.000557738705538,0.00438299030066,-0.0526565760374,-0.086077362299,-9.73255157471,0.0,-0.00153846165631,-1.689011693,0.0,-0.0526565760374,-0.086077362299,-9.73255157471,0.00142087112181,0.000621664978098,0.00445354590192,-0.021315196529,0.187622636557,0.391523957253,1013.09997559,1.24869441986,31.1499996185,0.0,0.0,0.0,0.0,-0.319856435061,0.0,0.0,-0.00948903802782,0.0,0.0,0.0,0,3,1,,,,,,,,,,,,,,,,-0.00918350089341,0.00126804830506,-0.000461667601485,0.0,0,2,1.0,0,1,0.0,0.0025641026441,0.0,1.0,0.99816006422,0.937343358994,-0.998161792755,-2.47037157179e+14,7,10.0,10.0,10.0,10.0,0.0,0.0,0.0,0.0,,,-0.0691309720278,0.0103119565174,0.00130520644598,,,,,,,,,,,,,,,,,,,,,,,,,,,,,,,,,,,,,,,,11.8506669998,11.8495807648,-1.0,-1.0,,,,,,,,,,,84204649,PX4FMU_V1,unknown_git_version,test,305419904.0,,,,,,,,,,,,,,
0.0138230407611,-0.00360076408833,-1.69023561478,0.000749038706999,0.000494470878039,0.00552299199626,-0.0536294169724,-0.0917715281248,-9.72629356384,0.0,-0.00153846165631,-1.689011693,0.0,-0.0536294169724,-0.0917715281248,-9.72629356384,0.00104190409184,0.000605808978435,0.00574673525989,-0.0231499485672,0.186790406704,0.387073397636,1013.10998535,1.16544353962,31.1399993896,0.0,0.0,0.0,0.0,-0.318792700768,0.0,0.0,-0.00924023613334,0.0,0.0,0.0,0,3,1,,,,,,,,,,,,,,,,-0.00908111594617,0.00127625919413,-0.000646996486466,0.0,0,2,1.0,0,1,0.0,0.0025641026441,0.0,1.0,0.99816006422,0.937343358994,-0.998161792755,-2.47037157179e+14,7,10.0,10.0,10.0,10.0,0.0,0.0,0.0,0.0,,,-0.069105707109,0.0103118494153,0.00120968255214,,,,,,,,,,,,,,,,,,,,,,,,,,,,,,,,,,,,,,,,11.8506669998,11.8495740891,-1.0,-1.0,,,,,,,,,,,84226982,PX4FMU_V1,unknown_git_version,test,305419904.0,,,,,,,,,,,,,,
0.0138319926336,-0.00359875615686,-1.69039857388,0.00170082005206,0.00083839945728,0.00546620506793,-0.0482479669154,-0.0998552888632,-9.70806598663,0.0,0.0,-1.689011693,0.0,-0.0482479669154,-0.0998552888632,-9.70806598663,0.00194322201423,0.000746936770156,0.00529203983024,-0.02223258093,0.185125932097,0.387073397636,1013.13000488,0.998943567276,31.1399993896,0.0,0.0,0.0,0.0,-0.316061198711,0.0,0.0,-0.00820195674896,0.0,0.0,0.0,0,3,1,,,,,,,,,,,,,,,,-0.0092118633911,0.00223027449101,-0.000615633558482,0.0,0,2,1.0,0,1,0.0,-0.0,0.0,1.0,0.99816006422,0.937343358994,-0.998161792755,-2.47037157179e+14,7,10.0,10.0,10.0,10.0,0.0,0.0,0.0,0.0,,,-0.0691596716642,0.017994357273,0.00136198138352,,,,,,,,,,,,,,,,,,,,,,,,,,,,,,,,,,,,,,,,11.8422851562,11.8495588303,-1.0,-1.0,,,,,,,,,,,84247959,PX4FMU_V1,unknown_git_version,test,305419904.0,,,,,,,,,,,,,,
0.0138308769092,-0.00358649762347,-1.69037997723,0.00080929719843,0.000955557217821,0.00490483688191,-0.0483308658004,-0.0903177410364,-9.74172019958,0.0,0.0,-1.689011693,0.0,-0.0483308658004,-0.0903177410364,-9.74172019958,0.000673069851473,0.000969630142208,0.00478058541194,-0.021315196529,0.183461472392,0.382622867823,1013.08996582,1.33194601536,31.1399993896,0.0,0.0,0.0,0.0,-0.315302580595,0.0,0.0,-0.00802293792367,0.0,0.0,0.0,0,3,1,,,,,,,,,,,,,,,,-0.00909523759037,0.00220707478002,-0.000534203310963,0.0,0,2,1.0,0,1,0.0,-0.0,0.0,1.0,0.99816006422,0.937343358994,-0.998161792755,-2.47037157179e+14,7,10.0,10.0,10.0,10.0,0.0,0.0,0.0,0.0,,,-0.0691540688276,0.0179330557585,0.0013434815919,,,,,,,,,,,,,,,,,,,,,,,,,,,,,,,,,,,,,,,,11.8422851562,11.8495512009,-1.0,-1.0,,,,,,,,,,,84269225,PX4FMU_V1,unknown_git_version,test,305419904.0,,,,,,,,,,,,,,
0.0138343982399,-0.00359419849701,-1.690289855,0.00135881092865,0.000199782778509,0.00400014873594,-0.0648024380207,-0.0976043790579,-9.75277805328,0.0,-0.00153846165631,-1.689011693,0.0,-0.0648024380207,-0.0976043790579,-9.75277805328,0.0013863670174,0.000125040663988,0.00414921389893,-0.0194804295897,0.187622636557,0.385293215513,1013.08996582,1.33194601536,31.1399993896,0.0,0.0,0.0,0.0,-0.313762754202,0.0,0.0,-0.00752812577412,0.0,0.0,0.0,0,3,1,,,,,,,,,,,,,,,,-0.00916771311313,0.00131030054763,-0.00041043953388,0.0,0,2,1.0,0,1,0.0,0.0025641026441,0.0,1.0,1.0,0.937343358994,-0.998161792755,-2.47037157179e+14,7,10.0,10.0,10.0,10.0,0.0,0.0,0.0,0.0,,,-0.06916205585,0.0102790184319,0.00126388540957,,,,,,,,,,,,,,,,,,,,,,,,,,,,,,,,,,,,,,,,11.8422851562,11.8495359421,-1.0,-1.0,,,,,,,,,,,84291532,PX4FMU_V1,unknown_git_version,test,305419904.0,,,,,,,,,,,,,,
0.0138417389244,-0.00360749638639,-1.69019496441,0.000938676239457,0.000256630097283,0.00490499800071,-0.0719301179051,-0.107726149261,-9.71965503693,0.0,-0.00153846165631,-1.689011693,0.0,-0.0719301179051,-0.107726149261,-9.71965503693,0.000531454687007,0.00037876679562,0.00504784518853,-0.017645675689,0.171810179949,0.389743715525,1013.05999756,1.58170485497,31.1399993896,0.0,0.0,0.0,0.0,-0.314720481634,0.0,0.0,-0.00820171367377,0.0,0.0,0.0,0,3,1,,,,,,,,,,,,,,,,-0.00911796186119,0.00131155422423,-0.000560404965654,0.0,0,2,1.0,0,1,0.0,0.0025641026441,0.0,1.0,1.0,0.937343358994,-0.998161792755,-2.47037157179e+14,7,10.0,10.0,10.0,10.0,0.0,0.0,0.0,0.0,,,-0.0691994950175,0.0103455083445,0.00116896501277,,,,,,,,,,,,,,,,,,,,,,,,,,,,,,,,,,,,,,,,11.8422851562,11.8495206833,-1.0,-1.0,,,,,,,,,,,84312385,PX4FMU_V1,unknown_git_version,test,305419904.0,,,,,,,,,,,,,,
0.0138413254172,-0.00361431995407,-1.69003140926,0.000765315373428,0.000729835417587,0.00422080326825,-0.0654244348407,-0.0804295912385,-9.73775100708,0.0,0.0,-1.689011693,0.0,-0.0654244348407,-0.0804295912385,-9.73775100708,0.000699114054441,0.000878582941368,0.00375008163974,-0.017645675689,0.190119341016,0.38440310955,1013.10998535,1.16544353962,31.1499996185,0.0,0.0,0.0,0.0,-0.316085517406,0.0,0.0,-0.00919104833156,0.0,0.0,0.0,0,3,1,,,,,,,,,,,,,,,,-0.00909631326795,0.00225450424477,-0.000483922602143,0.0,0,2,1.0,0,1,0.0,-0.0,0.0,1.0,0.99816006422,0.937343358994,-0.998161792755,-2.47037157179e+14,7,10.0,10.0,10.0,10.0,0.0,0.0,0.0,0.0,,,-0.0692063271999,0.018072174862,0.00099465274252,,,,,,,,,,,,,,,,,,,,,,,,,,,,,,,,,,,,,,,,11.8506669998,11.8495140076,-1.0,-1.0,,,,,,,,,,,84335551,PX4FMU_V1,unknown_git_version,test,305419904.0,,,,,,,,,,,,,,
0.0138251362368,-0.0036227395758,-1.69009065628,0.000418521434767,0.000191117083887,0.0043642022647,-0.0642009824514,-0.0873540341854,-9.73019313812,0.0,0.0,-1.689011693,0.0,-0.0642009824514,-0.0873540341854,-9.73019313812,0.000465973163955,0.000246771494858,0.00449380930513,-0.02223258093,0.180964767933,0.382622867823,1013.04998779,1.66495919228,31.1499996185,0.0,0.0,0.0,0.0,-0.315073639154,0.0,0.0,-0.00888309627771,0.0,0.0,0.0,0,3,1,,,,,,,,,,,,,,,,-0.00904070679098,0.00233001075685,-0.000496544293128,0.0,0,2,1.0,0,1,0.0,-0.0,0.0,1.0,0.99816006422,0.937343358994,-0.998161792755,-2.47037157179e+14,7,10.0,10.0,10.0,10.0,0.0,0.0,0.0,0.0,,,-0.0691253766418,0.0181142762303,0.00105390709359,,,,,,,,,,,,,,,,,,,,,,,,,,,,,,,,,,,,,,,,11.8674287796,11.849524498,-1.0,-1.0,,,,,,,,,,,84356755,PX4FMU_V1,unknown_git_version,test,305419904.0,,,,,,,,,,,,,,
0.0138148432598,-0.00362698105164,-1.6900908947,0.000605927780271,0.00106060365215,0.00567240919918,-0.0916757062078,-0.117929898202,-9.73746395111,0.0,-0.00153846165631,-1.689011693,0.0,-0.0916757062078,-0.117929898202,-9.73746395111,0.000659652578179,0.00136103620753,0.00605775602162,-0.021315196529,0.187622636557,0.388853609562,1013.04998779,1.66495919228,31.1499996185,0.0,0.0,0.0,0.0,-0.319065481424,0.0,0.0,-0.0111016882583,0.0,0.0,0.0,0,3,1,,,,,,,,,,,,,,,,-0.00905732810497,0.00121970335022,-0.000691152759828,0.0,0,2,1.0,0,1,0.0,0.0025641026441,0.0,1.0,0.99816006422,0.937343358994,-0.998161792755,-2.47037157179e+14,7,10.0,10.0,10.0,10.0,0.0,0.0,0.0,0.0,,,-0.0690658316016,0.010442936793,0.00106472417247,,,,,,,,,,,,,,,,,,,,,,,,,,,,,,,,,,,,,,,,11.8422851562,11.8495168686,-1.0,-1.0,,,,,,,,,,,84377866,PX4FMU_V1,unknown_git_version,test,305419904.0,,,,,,,,,,,,,,
0.0138117261231,-0.00363377458416,-1.68951749802,-0.00356200570241,-0.00201853713952,0.0222011692822,-0.103138461709,-0.407493293285,-9.78941631317,0.0,-0.00153846165631,-1.689011693,0.0,-0.103138461709,-0.407493293285,-9.78941631317,-0.0104195177555,-4.97026121593e-05,0.0280287414789,-0.0158109087497,0.205931812525,0.452941298485,1013.10998535,1.16544353962,31.1499996185,0.0,0.0,0.0,0.0,-0.317043602467,0.0,0.0,-0.0103362351656,0.0,0.0,0.0,0,3,1,,,,,,,,,,,,,,,,-0.00851404201239,0.00162440631539,-0.00325647182763,0.0,0,2,1.0,0,1,0.0,0.0025641026441,0.0,1.0,0.99816006422,0.937343358994,-0.998161792755,-2.47037157179e+14,7,10.0,10.0,10.0,10.0,0.0,0.0,0.0,0.0,,,-0.069054633379,0.0104768965393,0.000491357815918,,,,,,,,,,,,,,,,,,,,,,,,,,,,,,,,,,,,,,,,11.3561906815,11.8488235474,-1.0,-1.0,,,,,,,,,,,84399715,PX4FMU_V1,unknown_git_version,test,305419904.0,,,,,,,,,,,,,,
0.0135603137314,-0.00369109166786,-1.69121694565,-0.00190865062177,-0.0024273514282,-0.016731351614,0.297299951315,0.00149040669203,-9.77147293091,0.0,0.0,-1.689011693,0.0,0.297299951315,0.00149040669203,-9.77147293091,0.0101306978613,-0.0026252544485,0.00998668372631,-0.0268194694072,0.182629227638,0.452051192522,1013.07000732,1.49845123291,31.1499996185,0.0,0.0,0.0,0.0,-0.31804394722,0.0,0.0,-0.010984024033,0.0,0.0,0.0,0,3,1,,,,,,,,,,,,,,,,-0.00856603961438,0.00271483929828,0.00283673265949,0.0,0,2,1.0,0,1,0.0,-0.0,0.0,1.0,0.99816006422,0.937343358994,-0.998161792755,-2.47037157179e+14,7,10.0,10.0,10.0,10.0,0.0,0.0,0.0,0.0,,,-0.0678012669086,0.0184560287744,0.00218019774184,,,,,,,,,,,,,,,,,,,,,,,,,,,,,,,,,,,,,,,,11.3394289017,11.8477964401,-1.0,-1.0,,,,,,,,,,,84420240,PX4FMU_V1,unknown_git_version,test,305419904.0,,,,,,,,,,,,,,
0.0137550719082,-0.00367042445578,-1.69020962715,0.00444440031424,0.00548992073163,0.0188557561487,-0.211848258972,-0.11308490485,-9.53029441833,0.0,0.0,-1.689011693,0.0,-0.211848258972,-0.11308490485,-9.53029441833,-0.00338315684348,0.00180750968866,-0.0301987212151,-0.00847186800092,0.185125932097,0.449380844831,1013.11999512,1.08219325542,31.1499996185,0.0,0.0,0.0,0.0,-0.318377405405,0.0,0.0,-0.0112097309902,0.0,0.0,0.0,0,3,1,,,,,,,,,,,,,,,,-0.00951852928847,0.00167216127738,-0.00265245651826,0.0,0,2,1.0,0,1,0.0,-0.0,0.0,1.0,0.99816006422,0.937343358994,-0.998161792755,-2.47037157179e+14,7,10.0,10.0,10.0,10.0,0.0,0.0,0.0,0.0,,,-0.0687750577927,0.0183527003974,0.00117271416821,,,,,,,,,,,,,,,,,,,,,,,,,,,,,,,,,,,,,,,,11.3226661682,11.8467464447,-1.0,-1.0,,,,,,,,,,,84441565,PX4FMU_V1,unknown_git_version,test,305419904.0,,,,,,,,,,,,,,
0.0134545546025,-0.00377959362231,-1.69120752811,-0.00327678397298,-0.00190576398745,0.0098124127835,-0.262663066387,0.303391873837,-9.80744934082,0.0,-0.00153846165631,-1.689011693,0.0,-0.262663066387,0.303391873837,-9.80744934082,0.0122465454042,0.00639214459807,0.0547422505915,0.0190495401621,0.191783815622,0.458281934261,1013.07995605,1.41519832611,31.1499996185,0.0,0.0,0.0,0.0,-0.318045139313,0.0,0.0,-0.0112456995994,0.0,0.0,0.0,0,3,1,,,,,,,,,,,,,,,,-0.00831726752222,0.00170453102328,-0.00114475109149,0.0,0,2,1.0,0,1,0.0,0.0025641026441,0.0,1.0,1.0,0.937343358994,-0.998161792755,-2.47037157179e+14,7,10.0,10.0,10.0,10.0,0.0,0.0,0.0,0.0,,,-0.0672557651997,0.0112060140818,0.00218073907308,,,,,,,,,,,,,,,,,,,,,,,,,,,,,,,,,,,,,,,,11.3478097916,11.8457574844,-1.0,-1.0,,,,,,,,,,,84463703,PX4FMU_V1,unknown_git_version,test,305419904.0,,,,,,,,,,,,,,
0.0135952848941,-0.00378216360696,-1.69519007206,-0.0124990502372,-0.00913051888347,0.0205761231482,-0.29064565897,0.0487653613091,-9.54422664642,0.0,0.0,-1.689011693,0.0,-0.29064565897,0.0487653613091,-9.54422664642,-0.0345653928816,-0.0205729622394,-0.0291435010731,-0.0304889902472,0.195112764835,0.474303841591,1013.11999512,1.08219325542,31.1399993896,0.0,0.0,0.0,0.0,-0.318404048681,0.0,0.0,-0.011737155728,0.0,0.0,0.0,0,3,1,,,,,,,,,,,,,,,,-0.0072120167315,0.00364544941112,-0.00216351263225,0.0,0,2,1.0,0,1,0.0,-0.0,0.0,1.0,1.0,0.93483710289,-0.996323525906,-2.47037157179e+14,7,10.0,10.0,10.0,10.0,0.0,0.0,0.0,0.0,,,-0.0679761022329,0.0189114008099,0.00615270575508,,,,,,,,,,,,,,,,,,,,,,,,,,,,,,,,,,,,,,,,11.3226661682,11.8452339172,-1.0,-1.0,,,,,,,,,,,84484649,PX4FMU_V1,unknown_git_version,test,305419904.0,,,,,,,,,,,,,,
0.0131817376241,-0.0038295565173,-1.69324600697,-0.010501626879,0.00381655944511,-0.017391692847,0.613814771175,0.176480263472,-9.44470024109,0.0,-0.00153846165631,-1.689011693,0.0,0.613814771175,0.176480263472,-9.44470024109,0.000424698897405,0.0111735668033,0.0460089333355,0.0218016766012,0.201770633459,0.450270950794,1013.09997559,1.24869441986,31.1399993896,0.0,0.0,0.0,0.0,-0.317223191261,0.0,0.0,-0.0112720057368,0.0,0.0,0.0,0,3,1,,,,,,,,,,,,,,,,-0.00719866901636,0.000993110705167,0.00324162468314,0.0,0,2,1.0,0,1,0.0,0.0025641026441,0.0,1.0,0.99816006422,0.937343358994,-0.998161792755,-2.47037157179e+14,7,10.0,10.0,10.0,10.0,0.0,0.0,0.0,0.0,,,-0.0658760070801,0.0114558730274,0.00421913620085,,,,,,,,,,,,,,,,,,,,,,,,,,,,,,,,,,,,,,,,11.3226661682,11.8442316055,-1.0,-1.0,,,,,,,,,,,84506244,PX4FMU_V1,unknown_git_version,test,305419904.0,,,,,,,,,,,,,,
0.0134281469509,-0.00390473357402,-1.69697713852,0.0192125383765,0.0123066436499,-0.00441901944578,-0.0518120415509,0.0577577874064,-9.93142795563,0.0,-0.00153846165631,-1.689011693,0.0,-0.0518120415509,0.0577577874064,-9.93142795563,0.0200164057314,0.0200771410018,-0.0659395381808,-0.0369106605649,0.174306884408,0.462732434273,1013.04998779,1.66495919228,31.1399993896,0.0,0.0,0.0,0.0,-0.318730503321,0.0,0.0,-0.0119760595262,0.0,0.0,0.0,0,3,1,,,,,,,,,,,,,,,,-0.0112179452553,-6.17090336164e-05,0.00185529049486,0.0,0,2,1.0,0,1,0.0,0.0025641026441,0.0,1.0,1.0,0.937343358994,-0.998161792755,-2.47037157179e+14,7,10.0,10.0,10.0,10.0,0.0,0.0,0.0,0.0,,,-0.0670793503523,0.0118319587782,0.0079495832324,,,,,,,,,,,,,,,,,,,,,,,,,,,,,,,,,,,,,,,,11.3561906815,11.8432474136,-1.0,-1.0,,,,,,,,,,,84529031,PX4FMU_V1,unknown_git_version,test,305419904.0,,,,,,,,,,,,,,
0.0133908232674,-0.00371738453396,-1.69494664669,-0.0158716328442,-0.0112593378872,0.0397228896618,0.0271853916347,-0.115188702941,-9.96009922028,0.0,-0.00153846165631,-1.689011693,0.0,0.0271853916347,-0.115188702941,-9.96009922028,-0.0252067111433,-0.0281548742205,0.0777517259121,0.00987573340535,0.199273929,0.466292887926,1013.09997559,1.24869441986,31.1499996185,0.0,0.0,0.0,0.0,-0.319271326065,0.0,0.0,-0.0128882024437,0.0,0.0,0.0,0,3,1,,,,,,,,,,,,,,,,-0.00663477508351,0.00288007338531,-0.00507038226351,0.0,0,2,1.0,0,1,0.0,0.0025641026441,0.0,1.0,0.99816006422,0.937343358994,-0.998161792755,-2.47037157179e+14,7,10.0,10.0,10.0,10.0,0.0,0.0,0.0,0.0,,,-0.0669083669782,0.0108950734138,0.00592034123838,,,,,,,,,,,,,,,,,,,,,,,,,,,,,,,,,,,,,,,,11.3310470581,11.8422231674,-1.0,-1.0,,,,,,,,,,,84550292,PX4FMU_V1,unknown_git_version,test,305419904.0,,,,,,,,,,,,,,
0.0132282646373,-0.00383973470889,-1.69760429859,0.00327474321239,0.00992217380553,-0.0288705695421,0.696859717369,-0.230698406696,-9.58383083344,0.0,-0.00153846165631,-1.689011693,0.0,0.696859717369,-0.230698406696,-9.58383083344,0.00723935384303,0.0122708780691,-0.00262799020857,-0.0433323159814,0.178468048573,0.467182993889,1013.05999756,1.58170485497,31.1499996185,0.0,0.0,0.0,0.0,-0.319639384747,0.0,0.0,-0.013674531132,0.0,0.0,0.0,0,3,1,,,,,,,,,,,,,,,,-0.00901548191905,0.000206024837098,0.00561719201505,0.0,0,2,1.0,0,1,0.0,0.0025641026441,0.0,1.0,1.0,0.937343358994,-0.998161792755,-2.47037157179e+14,7,10.0,10.0,10.0,10.0,0.0,0.0,0.0,0.0,,,-0.066075116396,0.011506980285,0.00857737474144,,,,,,,,,,,,,,,,,,,,,,,,,,,,,,,,,,,,,,,,11.3394289017,11.8412342072,-1.0,-1.0,,,,,,,,,,,84571839,PX4FMU_V1,unknown_git_version,test,305419904.0,,,,,,,,,,,,,,
0.0130746001378,-0.0040358286351,-1.69951689243,-0.0060655279085,-0.0100506292656,0.0094834882766,-0.423071086407,0.100411355495,-9.83406543732,0.0,-0.00153846165631,-1.689011693,0.0,-0.423071086407,0.100411355495,-9.83406543732,-0.00343201356009,-0.00633535487577,-0.0324178040028,-0.106631562114,0.152668789029,0.463622540236,1013.10998535,1.16544353962,31.1499996185,0.0,0.0,0.0,0.0,-0.321027636528,0.0,0.0,-0.0145787782967,0.0,0.0,0.0,0,3,1,,,,,,,,,,,,,,,,-0.00769944675267,0.00292997062206,0.000150799110997,0.0,0,2,1.0,0,1,0.0,0.0025641026441,0.0,1.0,1.0,0.937343358994,-0.998161792755,-2.47037157179e+14,7,10.0,10.0,10.0,10.0,0.0,0.0,0.0,0.0,,,-0.0652920454741,0.0124876070768,0.0104888156056,,,,,,,,,,,,,,,,,,,,,,,,,,,,,,,,,,,,,,,,11.3310470581,11.8407239914,-1.0,-1.0,,,,,,,,,,,84592745,PX4FMU_V1,unknown_git_version,test,305419904.0,,,,,,,,,,,,,,
0.0130832716823,-0.00388640002348,-1.69725823402,0.00453024590388,0.00690206559375,0.00255788303912,0.279224127531,-0.042804017663,-9.64307498932,0.0,-0.00153846165631,-1.689011693,0.0,0.279224127531,-0.042804017663,-9.64307498932,0.00644368072972,0.00484866881743,0.0390981063247,0.0153800211847,0.211757451296,0.456501692533,1013.07995605,1.41519832611,31.1499996185,0.0,0.0,0.0,0.0,-0.320555746555,0.0,0.0,-0.0146274203435,0.0,0.0,0.0,0,3,1,,,,,,,,,,,,,,,,-0.00908479467034,0.000628968467936,0.000850986572914,0.0,0,2,1.0,0,1,0.0,0.0025641026441,0.0,1.0,1.0,0.937343358994,-0.998161792755,-2.47037157179e+14,7,10.0,10.0,10.0,10.0,0.0,0.0,0.0,0.0,,,-0.0653527975082,0.0117402849719,0.00823112670332,,,,,,,,,,,,,,,,,,,,,,,,,,,,,,,,,,,,,,,,11.3310470581,11.8397474289,-1.0,-1.0,,,,,,,,,,,84613821,PX4FMU_V1,unknown_git_version,test,305419904.0,,,,,,,,,,,,,,
0.0131150530651,-0.00399220641702,-1.70522105694,0.00320309796371,0.00130402494688,-0.0149767464027,-0.166863203049,-0.019736006856,-9.71583080292,0.0,-0.00153846165631,-1.689011693,0.0,-0.166863203049,-0.019736006856,-9.71583080292,0.00474382005632,0.00645596347749,-0.03799302876,-0.0708537399769,0.184293702245,0.457391798496,1013.07000732,1.49845123291,31.1499996185,0.0,0.0,0.0,0.0,-0.322265654802,0.0,0.0,-0.0155197270215,0.0,0.0,0.0,0,3,1,,,,,,,,,,,,,,,,-0.00892496109009,0.00142558733933,0.00467548426241,0.0,0,2,1.0,0,1,0.0,0.0025641026441,0.0,1.0,1.0,0.937343358994,-0.998161792755,-2.47037157179e+14,7,10.0,10.0,10.0,10.0,0.0,0.0,0.0,0.0,,,-0.0654504448175,0.0122700817883,0.0161931477487,,,,,,,,,,,,,,,,,,,,,,,,,,,,,,,,,,,,,,,,11.3561906815,11.8387470245,-1.0,-1.0,,,,,,,,,,,84636213,PX4FMU_V1,unknown_git_version,test,305419904.0,,,,,,,,,,,,,,
0.0131275113672,-0.00390753243119,-1.7038551569,-0.000794089748524,-8.32519890537e-06,0.0163330212235,-0.0912840589881,-0.140672668815,-9.72014045715,0.0,-0.00153846165631,-1.689011693,0.0,-0.0912840589881,-0.140672668815,-9.72014045715,-0.00447481218725,-0.00573044642806,0.0260980408639,-0.000215443928028,0.201770633459,0.46095225215,1013.07000732,1.49845123291,31.1499996185,0.0,0.0,0.0,0.0,-0.323330044746,0.0,0.0,-0.0163394138217,0.0,0.0,0.0,0,3,1,,,,,,,,,,,,,,,,-0.00841479096562,0.00154113268945,-0.000225771873374,0.0,0,2,1.0,0,1,0.0,0.0025641026441,0.0,1.0,1.0,0.93483710289,-0.996323525906,-2.47037157179e+14,7,10.0,10.0,10.0,10.0,0.0,0.0,0.0,0.0,,,-0.0655232518911,0.0118465423584,0.0148278754205,,,,,,,,,,,,,,,,,,,,,,,,,,,,,,,,,,,,,,,,11.3394289017,11.8377571106,-1.0,-1.0,,,,,,,,,,,84657026,PX4FMU_V1,unknown_git_version,test,305419904.0,,,,,,,,,,,,,,
0.0131660429761,-0.00393624091521,-1.69774532318,0.00363185000606,0.00262309284881,0.00281145609915,-0.0161280967295,-0.204200327396,-9.70511627197,0.0,-0.00153846165631,-1.689011693,0.0,-0.0161280967295,-0.204200327396,-9.70511627197,0.00059512432199,0.0052926405333,0.0015958501026,0.0218016766012,0.18595816195,0.46095225215,1013.03997803,1.74821412563,31.1499996185,0.0,0.0,0.0,0.0,-0.327387094498,0.0,0.0,-0.0184997692704,0.0,0.0,0.0,0,3,1,,,,,,,,,,,,,,,,-0.00902131944895,0.0012176373275,0.000885953952093,0.0,0,2,1.0,0,1,0.0,0.0025641026441,0.0,1.0,0.99816006422,0.937343358994,-0.998161792755,-2.47037157179e+14,7,10.0,10.0,10.0,10.0,0.0,0.0,0.0,0.0,,,-0.0657629147172,0.0119895348325,0.00871781539172,,,,,,,,,,,,,,,,,,,,,,,,,,,,,,,,,,,,,,,,11.3813333511,11.8373003006,-1.0,-1.0,,,,,,,,,,,84678318,PX4FMU_V1,unknown_git_version,test,305419904.0,,,,,,,,,,,,,,
0.0130901755765,-0.0039251036942,-1.69384837151,0.00188214192167,0.000674307812005,0.00753897801042,-0.0167137570679,-0.120757140219,-9.69156455994,0.0,-0.00153846165631,-1.689011693,0.0,-0.0167137570679,-0.120757140219,-9.69156455994,0.00726432772353,0.00154648697935,0.0171582177281,0.00437146006152,0.174306884408,0.466292887926,1013.07000732,1.49845123291,31.1599998474,0.0,0.0,0.0,0.0,-0.327974200249,0.0,0.0,-0.0187072828412,0.0,0.0,0.0,0,3,1,,,,,,,,,,,,,,,,-0.0087484382093,0.00146371265873,-0.000407689774875,0.0,0,2,1.0,0,1,0.0,0.0025641026441,0.0,1.0,1.0,0.937343358994,-0.998161792755,-2.47037157179e+14,7,10.0,10.0,10.0,10.0,0.0,0.0,0.0,0.0,,,-0.0654135346413,0.0119336359203,0.00482104625553,,,,,,,,,,,,,,,,,,,,,,,,,,,,,,,,,,,,,,,,11.3561906815,11.8363466263,-1.0,-1.0,,,,,,,,,,,84700264,PX4FMU_V1,unknown_git_version,test,305419904.0,,,,,,,,,,,,,,
0.0130812888965,-0.00397720606998,-1.69632291794,0.000747611687984,-0.001413554186,0.000159692252055,0.0407773405313,-0.0877113491297,-9.77353668213,0.0,-0.00153846165631,-1.689011693,0.0,0.0407773405313,-0.0877113491297,-9.77353668213,0.00117033650167,-0.00106272601988,-0.00637827673927,-0.0754406303167,0.152668789029,0.441369891167,1013.04998779,1.66495919228,31.1599998474,0.0,0.0,0.0,0.0,-0.329014569521,0.0,0.0,-0.0192068126053,0.0,0.0,0.0,0,3,1,,,,,,,,,,,,,,,,-0.0085926996544,0.00176901754458,0.00107033224776,0.0,0,2,1.0,0,1,0.0,0.0025641026441,0.0,1.0,1.0,0.937343358994,-0.998161792755,-2.47037157179e+14,7,10.0,10.0,10.0,10.0,0.0,0.0,0.0,0.0,,,-0.0653500780463,0.0121942739934,0.00729523971677,,,,,,,,,,,,,,,,,,,,,,,,,,,,,,,,,,,,,,,,11.3813333511,11.8354196548,-1.0,-1.0,,,,,,,,,,,84721620,PX4FMU_V1,unknown_git_version,test,305419904.0,,,,,,,,,,,,,,
0.0131052155048,-0.00393970729783,-1.69786560535,0.00527728209272,0.0040360991843,0.00482821278274,-0.0986549630761,0.0617013126612,-9.69039916992,0.0,-0.00153846165631,-1.689011693,0.0,-0.0986549630761,0.0617013126612,-9.69039916992,0.0084240026772,0.0041151130572,0.00865603610873,-0.0240673329681,0.178468048573,0.469853281975,1013.09997559,1.24869441986,31.1599998474,0.0,0.0,0.0,0.0,-0.333091944456,0.0,0.0,-0.0213199649006,0.0,0.0,0.0,0,3,1,,,,,,,,,,,,,,,,-0.00919556524605,0.00103620020673,0.000601489038672,0.0,0,2,1.0,0,1,0.0,0.0025641026441,0.0,1.0,0.99816006422,0.937343358994,-0.998161792755,-2.47037157179e+14,7,10.0,10.0,10.0,10.0,0.0,0.0,0.0,0.0,,,-0.0654578357935,0.0120068704709,0.00883813947439,,,,,,,,,,,,,,,,,,,,,,,,,,,,,,,,,,,,,,,,11.3561906815,11.8344783783,-1.0,-1.0,,,,,,,,,,,84742827,PX4FMU_V1,unknown_git_version,test,305419904.0,,,,,,,,,,,,,,
0.0131230419502,-0.00391138298437,-1.69762158394,-0.00132513651624,0.000132441127789,0.0058761597611,-0.0678189918399,0.134715035558,-9.68222618103,0.0,-0.00153846165631,-1.689011693,0.0,-0.0678189918399,0.134715035558,-9.68222618103,0.000135692593176,0.000618744990788,0.00526593904942,-0.0203978121281,0.187622636557,0.444040209055,1013.09997559,1.24869441986,31.1599998474,0.0,0.0,0.0,0.0,-0.332150638103,0.0,0.0,-0.0208990313113,0.0,0.0,0.0,0,3,1,,,,,,,,,,,,,,,,-0.00834908057004,0.00152526225429,0.000407708022976,0.0,0,2,1.0,0,1,0.0,0.0025641026441,0.0,1.0,0.99816006422,0.937343358994,-0.998161792755,-2.47037157179e+14,7,10.0,10.0,10.0,10.0,0.0,0.0,0.0,0.0,,,-0.0655488371849,0.0118652284145,0.00859421305358,,,,,,,,,,,,,,,,,,,,,,,,,,,,,,,,,,,,,,,,11.3813333511,11.8335886002,-1.0,-1.0,,,,,,,,,,,84765168,PX4FMU_V1,unknown_git_version,test,305419904.0,,,,,,,,,,,,,,
0.013086989522,-0.0038956340868,-1.70021307468,-0.00386746111326,-0.0003650271683,0.00364264962263,0.105721190572,0.0273944064975,-9.77173423767,0.0,0.0,-1.689011693,0.0,0.105721190572,0.0273944064975,-9.77173423767,-0.00397846661508,-0.00219733966514,0.00175826647319,-0.044249702245,0.155997723341,0.459172040224,1013.07995605,1.41519832611,31.1599998474,0.0,0.0,0.0,0.0,-0.332877099514,0.0,0.0,-0.0211937390268,0.0,0.0,0.0,0,3,1,,,,,,,,,,,,,,,,-0.00800373032689,0.00257968786173,0.00112998357508,0.0,0,2,1.0,0,1,0.0,-0.0,0.0,1.0,0.99816006422,0.937343358994,-0.998161792755,-2.47037157179e+14,7,10.0,10.0,10.0,10.0,0.0,0.0,0.0,0.0,,,-0.0654346197844,0.0194787271321,0.011175872758,,,,,,,,,,,,,,,,,,,,,,,,,,,,,,,,,,,,,,,,11.3729524612,11.8331279755,-1.0,-1.0,,,,,,,,,,,84786188,PX4FMU_V1,unknown_git_version,test,305419904.0,,,,,,,,,,,,,,
0.0130366729572,-0.00396129768342,-1.70197141171,0.00330759421922,0.00321168405935,0.00412680208683,0.0258644912392,0.00976654328406,-9.81445884705,0.0,-0.00153846165631,-1.689011693,0.0,0.0258644912392,0.00976654328406,-9.81445884705,0.00969264190644,0.0077604088001,-0.000285808491753,-0.0534235090017,0.137688547373,0.458281934261,1013.08996582,1.33194601536,31.1700000763,0.0,0.0,0.0,0.0,-0.332253158092,0.0,0.0,-0.0209739394486,0.0,0.0,0.0,0,3,1,,,,,,,,,,,,,,,,-0.00889084953815,0.0011574535165,0.00132256536745,0.0,0,2,1.0,0,1,0.0,0.0025641026441,0.0,1.0,1.0,0.937343358994,-0.998161792755,-2.47037157179e+14,7,10.0,10.0,10.0,10.0,0.0,0.0,0.0,0.0,,,-0.0650835558772,0.0121151730418,0.0129439039156,,,,,,,,,,,,,,,,,,,,,,,,,,,,,,,,,,,,,,,,11.4064760208,11.8322582245,-1.0,-1.0,,,,,,,,,,,84808604,PX4FMU_V1,unknown_git_version,test,305419904.0,,,,,,,,,,,,,,
0.0131391519681,-0.00389059539884,-1.70483624935,0.00665176194161,0.00242776377127,0.00518946535885,-0.196038335562,-0.092422299087,-9.81416606903,0.0,0.0,-1.689011693,0.0,-0.196038335562,-0.092422299087,-9.81416606903,0.00539178401232,-0.00134366028942,0.00921356026083,-0.01122400444,0.174306884408,0.446710556746,1013.08996582,1.33194601536,31.1700000763,0.0,0.0,0.0,0.0,-0.332285583019,0.0,0.0,-0.0211150553077,0.0,0.0,0.0,0,3,1,,,,,,,,,,,,,,,,-0.00940513517708,0.00221335049719,0.00159142143093,0.0,0,2,1.0,0,1,0.0,-0.0,0.0,0.967821776867,0.99816006422,0.937343358994,-0.998161792755,-2.47037157179e+14,7,10.0,10.0,10.0,10.0,0.0,0.0,0.0,0.0,,,-0.0656954348087,0.0194535385817,0.0157989412546,,,,,,,,,,,,,,,,,,,,,,,,,,,,,,,,,,,,,,,,11.4148569107,11.8313989639,-1.0,-1.0,,,,,,,,,,,84829377,PX4FMU_V1,unknown_git_version,test,305419904.0,,,,,,,,,,,,,,
0.0131974825636,-0.00386669160798,-1.70762848854,-0.00229886802845,0.00111903692596,0.0039645479992,-0.00734160048887,-0.227969497442,-9.68868255615,0.0,-0.00153846165631,-1.689011693,0.0,-0.00734160048887,-0.227969497442,-9.68868255615,-0.00851393304765,-0.00129924411885,0.00300488853827,-0.0644320696592,0.173474654555,0.459172040224,1013.09997559,1.24869441986,31.1599998474,0.0,0.0,0.0,0.0,-0.332190394402,0.0,0.0,-0.021230166778,0.0,0.0,0.0,0,3,1,,,,,,,,,,,,,,,,-0.00826087594032,0.00136809167452,0.00219551031478,0.0,0,2,1.0,0,1,0.0,0.0025641026441,0.0,0.737623751163,1.0,0.937343358994,-0.998161792755,-2.47037157179e+14,7,10.0,10.0,10.0,10.0,0.0,0.0,0.0,0.0,,,-0.0658440738916,0.0116428192705,0.0186012834311,,,,,,,,,,,,,,,,,,,,,,,,,,,,,,,,,,,,,,,,11.3729524612,11.8305082321,-1.0,-1.0,,,,,,,,,,,84850506,PX4FMU_V1,unknown_git_version,test,305419904.0,,,,,,,,,,,,,,
0.0129865417257,-0.00406022556126,-1.70947873592,-0.00249254680239,-0.0021442596335,-0.00120626366697,-0.156366467476,-0.0516899563372,-9.81574058533,0.0,-0.00153846165631,-1.689011693,0.0,-0.156366467476,-0.0516899563372,-9.81574058533,0.00461370218545,0.00873459130526,-0.00231087161228,-0.0625973045826,0.155997723341,0.443150103092,1013.04998779,1.66495919228,31.1599998474,0.0,0.0,0.0,0.0,-0.333079516888,0.0,0.0,-0.0218992512673,0.0,0.0,0.0,0,3,1,,,,,,,,,,,,,,,,-0.0080967368558,0.00191815535072,0.00324851996265,0.0,0,2,1.0,0,1,0.0,0.0025641026441,0.0,0.381188124418,0.99816006422,0.937343358994,-0.998161792755,-2.47037157179e+14,7,10.0,10.0,10.0,10.0,0.0,0.0,0.0,0.0,,,-0.0647751390934,0.0126107819378,0.020450534299,,,,,,,,,,,,,,,,,,,,,,,,,,,,,,,,,,,,,,,,11.4064760208,11.8296689987,-1.0,-1.0,,,,,,,,,,,84872896,PX4FMU_V1,unknown_git_version,test,305419904.0,,,,,,,,,,,,,,
0.0132104959339,-0.00383566878736,-1.70983433723,0.0160374399275,0.0102896876633,0.0111721558496,0.113397218287,-0.290922552347,-9.718126297,0.0,-0.00307692331262,-1.689011693,0.0,0.113397218287,-0.290922552347,-9.718126297,0.011206320487,0.00585684552789,0.0178534332663,-0.035075891763,0.124372787774,0.471633523703,1013.09997559,1.24869441986,31.1799983978,0.0,0.0,0.0,0.0,-0.336370557547,0.0,0.0,-0.0237907897681,0.0,0.0,0.0,0,3,1,,,,,,,,,,,,,,,,-0.0106300460175,-0.000844027497806,0.0014467658475,0.0,0,2,1.0,0,1,0.0,0.0051282052882,0.0,0.0222772285342,0.99816006422,0.937343358994,-0.998161792755,-2.47037157179e+14,7,10.0,10.0,10.0,10.0,0.0,0.0,0.0,0.0,,,-0.0657321438193,0.00379716837779,0.0208172611892,,,,,,,,,,,,,,,,,,,,,,,,,,,,,,,,,,,,,,,,11.3561906815,11.8291959763,-1.0,-1.0,,,,,,,,,,,84893809,PX4FMU_V1,unknown_git_version,test,305419904.0,,,,,,,,,,,,,,
0.0131768025458,-0.00389546365477,-1.71305084229,-0.0109260249883,-0.00441660173237,0.000826220260933,-0.157680988312,-0.217844203115,-9.78566646576,0.0,-0.00153846165631,-1.689011693,0.0,-0.157680988312,-0.217844203115,-9.78566646576,-0.0196122583002,-0.00570093374699,0.00237699830905,-0.0543408766389,0.1584944278,0.437809497118,1013.07995605,1.41519832611,31.1799983978,0.0,0.0,0.0,0.0,-0.335909932852,0.0,0.0,-0.0235705003142,0.0,0.0,0.0,0,3,1,,,,,,,,,,,,,,,,-0.00712048541754,0.00210654269904,0.00347958155908,0.0,0,2,1.0,0,1,0.0,0.0025641026441,0.0,0.0173267330974,0.99816006422,0.937343358994,-0.998161792755,-2.47037157179e+14,7,10.0,10.0,10.0,10.0,0.0,0.0,0.0,0.0,,,-0.0656989887357,0.0117875738069,0.0240234304219,,,,,,,,,,,,,,,,,,,,,,,,,,,,,,,,,,,,,,,,11.4651432037,11.8283929825,-1.0,-1.0,,,,,,,,,,,84915070,PX4FMU_V1,unknown_git_version,test,305419904.0,,,,,,,,,,,,,,
0.0129454014823,-0.00405492633581,-1.71309673786,-0.000915158656426,-0.0048906118609,0.00406068610027,-0.321003228426,0.126878365874,-9.76901817322,0.0,0.0,-1.689011693,0.0,-0.321003228426,0.126878365874,-9.76901817322,0.0071466579102,-0.00106535619125,0.00491009606048,-0.0286542363465,0.176803588867,0.421787559986,1013.07000732,1.49845123291,31.1799983978,0.0,0.0,0.0,0.0,-0.337495416403,0.0,0.0,-0.0243731494993,0.0,0.0,0.0,0,3,1,,,,,,,,,,,,,,,,-0.00829549413174,0.00327155529521,0.00299971364439,0.0,0,2,1.0,0,1,0.0,-0.0,0.0,0.0198019798845,0.99816006422,0.937343358994,-0.998161792755,-2.47037157179e+14,7,10.0,10.0,10.0,10.0,0.0,0.0,0.0,0.0,,,-0.0647266581655,0.0202751997858,0.0240587759763,,,,,,,,,,,,,,,,,,,,,,,,,,,,,,,,,,,,,,,,11.4567613602,11.8276834488,-1.0,-1.0,,,,,,,,,,,84936771,PX4FMU_V1,unknown_git_version,test,305419904.0,,,,,,,,,,,,,,
0.0134116951376,-0.00368480221368,-1.71210741997,0.0312135703862,0.0254650451243,0.0117963543162,0.485469043255,-0.611592411995,-9.75760650635,0.0,0.0,-1.689011693,0.0,0.485469043255,-0.611592411995,-9.75760650635,0.0263586938381,0.0236604940146,0.012954027392,-0.00296758045442,0.130198433995,0.452941298485,1013.11999512,1.08219325542,31.1799983978,0.0,0.0,0.0,0.0,-0.337922364473,0.0,0.0,-0.0247907675803,0.0,0.0,0.0,0,3,1,,,,,,,,,,,,,,,,-0.0127753280103,-0.000915262615308,0.00169120170176,0.0,0,2,1.0,0,1,0.0,-0.0,0.0,0.0198019798845,0.99816006422,0.937343358994,-0.998161792755,-2.47037157179e+14,7,10.0,10.0,10.0,10.0,0.0,0.0,0.0,0.0,,,-0.0670581832528,0.0184245631099,0.0230710320175,,,,,,,,,,,,,,,,,,,,,,,,,,,,,,,,,,,,,,,,11.4819049835,11.8269758224,-1.0,-1.0,,,,,,,,,,,84957432,PX4FMU_V1,unknown_git_version,test,305419904.0,,,,,,,,,,,,,,
0.0128814615309,-0.00405025482178,-1.71465206146,-0.0565782748163,-0.0404501929879,-0.0191766135395,-0.286447525024,0.306958556175,-9.92977809906,0.0,-0.00153846165631,-1.689011693,0.0,-0.286447525024,0.306958556175,-9.92977809906,-0.0726939961314,-0.048009224236,-0.0149877583608,-0.0387454144657,0.163487836719,0.429798513651,1013.07995605,1.41519832611,31.1799983978,0.0,0.0,0.0,0.0,-0.337012261152,0.0,0.0,-0.0244949236512,0.0,0.0,0.0,0,3,1,,,,,,,,,,,,,,,,-0.000992119079456,0.0068915640004,0.00672011030838,0.0,0,2,1.0,0,1,0.0,0.0025641026441,0.0,0.0222772285342,0.99816006422,0.937343358994,-0.998161792755,-2.47037157179e+14,7,10.0,10.0,10.0,10.0,0.0,0.0,0.0,0.0,,,-0.0642099604011,0.0125618381426,0.0256241187453,,,,,,,,,,,,,,,,,,,,,,,,,,,,,,,,,,,,,,,,11.4819049835,11.8266305923,-1.0,-1.0,,,,,,,,,,,84978592,PX4FMU_V1,unknown_git_version,test,305419904.0,,,,,,,,,,,,,,
0.0131668113172,-0.0037532101851,-1.71494436264,0.040748719126,0.02851450257,-0.0147026684135,1.080768466,-1.17975449562,-9.5949048996,0.0,-0.00153846165631,-1.689011693,0.0,1.080768466,-1.17975449562,-9.5949048996,0.0276516899467,0.00553181348369,-0.0402173176408,-0.0103066358715,0.140185251832,0.440479785204,1013.05999756,1.58170485497,31.1700000763,0.0,0.0,0.0,0.0,-0.338438987732,0.0,0.0,-0.0259229838848,0.0,0.0,0.0,0,3,1,,,,,,,,,,,,,,,,-0.0138298142701,-0.00226692156866,0.00609308620915,0.0,0,2,1.0,0,1,0.0,0.0025641026441,0.0,0.0222772285342,0.99816006422,0.937343358994,-0.998161792755,-2.47037157179e+14,7,10.0,10.0,10.0,10.0,0.0,0.0,0.0,0.0,,,-0.0656344741583,0.011076644063,0.0259179025888,,,,,,,,,,,,,,,,,,,,,,,,,,,,,,,,,,,,,,,,11.4986667633,11.8259658813,-1.0,-1.0,,,,,,,,,,,85001295,PX4FMU_V1,unknown_git_version,test,305419904.0,,,,,,,,,,,,,,
0.0126695632935,-0.00429447647184,-1.7187538147,-0.00998212303966,-0.00797457434237,0.0455621629953,-1.09399449825,0.519304513931,-9.78161430359,0.0,-0.00153846165631,-1.689011693,0.0,-1.09399449825,0.519304513931,-9.78161430359,0.0253303516656,0.0205124057829,0.0851211845875,-0.0479192212224,0.16931347549,0.4262380898,1013.07995605,1.41519832611,31.1700000763,0.0,0.0,0.0,0.0,-0.339677751064,0.0,0.0,-0.0267170574516,0.0,0.0,0.0,0,3,1,,,,,,,,,,,,,,,,-0.00690778018907,0.00282859336585,-0.00237565045245,0.0,0,2,1.0,0,1,0.0,0.0025641026441,0.0,0.0222772285342,0.99816006422,0.937343358994,-0.998161792755,-2.47037157179e+14,7,10.0,10.0,10.0,10.0,0.0,0.0,0.0,0.0,,,-0.0631188973784,0.0137838367373,0.0297244936228,,,,,,,,,,,,,,,,,,,,,,,,,,,,,,,,,,,,,,,,11.4986667633,11.8253202438,-1.0,-1.0,,,,,,,,,,,85021900,PX4FMU_V1,unknown_git_version,test,305419904.0,,,,,,,,,,,,,,
0.0130771687254,-0.00383671466261,-1.71492815018,0.00185143493582,-0.000491157465149,-0.0214081052691,-0.185121446848,0.299722850323,-9.75410747528,0.0,-0.00153846165631,-1.689011693,0.0,-0.185121446848,0.299722850323,-9.75410747528,-0.0201653316617,-0.0206109955907,-0.0271523874253,0.0172147732228,0.150172069669,0.439589679241,1013.0199585,1.91472601891,31.1700000763,0.0,0.0,0.0,0.0,-0.344789773226,0.0,0.0,-0.0301131717861,0.0,0.0,0.0,0,3,1,,,,,,,,,,,,,,,,-0.00871491804719,0.00155809335411,0.00709641445428,0.0,0,2,1.0,0,1,0.0,0.0025641026441,0.0,0.0222772285342,0.99816006422,0.937343358994,-0.998161792755,-2.47037157179e+14,7,10.0,10.0,10.0,10.0,0.0,0.0,0.0,0.0,,,-0.0651864036918,0.0114941764623,0.0259013213217,,,,,,,,,,,,,,,,,,,,,,,,,,,,,,,,,,,,,,,,11.5154285431,11.8247003555,-1.0,-1.0,,,,,,,,,,,85043243,PX4FMU_V1,unknown_git_version,test,305419904.0,,,,,,,,,,,,,,
0.0135041801259,-0.00363966426812,-1.71811926365,-0.00794957205653,-0.00828556809574,-0.0209686607122,0.493159800768,-0.844317674637,-9.66547393799,0.0,-0.00153846165631,-1.689011693,0.0,0.493159800768,-0.844317674637,-9.66547393799,-0.0594329796731,-0.0406125336885,-0.05556935817,-0.0479192212224,0.151004299521,0.417337030172,1013.09997559,1.24869441986,31.1799983978,0.0,0.0,0.0,0.0,-0.347147256136,0.0,0.0,-0.0318681821227,0.0,0.0,0.0,0,3,1,,,,,,,,,,,,,,,,-0.00771515630186,0.00244336994365,0.00750928046182,0.0,0,2,1.0,0,1,0.0,0.0025641026441,0.0,0.0198019798845,1.0,0.937343358994,-0.998161792755,-2.47037157179e+14,7,10.0,10.0,10.0,10.0,0.0,0.0,0.0,0.0,,,-0.0672969296575,0.0105095859617,0.0290932077914,,,,,,,,,,,,,,,,,,,,,,,,,,,,,,,,,,,,,,,,11.8087615967,11.8245172501,-1.0,-1.0,,,,,,,,,,,85064997,PX4FMU_V1,unknown_git_version,test,305419904.0,,,,,,,,,,,,,,
0.01300815586,-0.00396389933303,-1.71620714664,0.0193556286395,0.0139884473756,0.0203111451119,0.671409785748,-0.326102674007,-9.78314399719,0.0,-0.00153846165631,-1.689011693,0.0,0.671409785748,-0.326102674007,-9.78314399719,0.05732915923,0.0350329875946,0.00152812013403,-0.0231499485672,0.124372787774,0.40131509304,1013.03997803,1.74821412563,31.1799983978,0.0,0.0,0.0,0.0,-0.350272357464,0.0,0.0,-0.0334853567183,0.0,0.0,0.0,0,3,1,,,,,,,,,,,,,,,,-0.0109443236142,-0.00024155023857,0.00103024626151,0.0,0,2,1.0,0,1,0.0,0.0025641026441,0.0,0.0198019798845,0.99816006422,0.937343358994,-0.998161792755,-2.47037157179e+14,7,10.0,10.0,10.0,10.0,0.0,0.0,0.0,0.0,,,-0.0648314803839,0.0121303685009,0.027179453522,,,,,,,,,,,,,,,,,,,,,,,,,,,,,,,,,,,,,,,,11.8255233765,11.8245182037,-1.0,-1.0,,,,,,,,,,,85086314,PX4FMU_V1,unknown_git_version,test,305419904.0,,,,,,,,,,,,,,
0.012901224196,-0.00415470264852,-1.71324849129,-0.0148440087214,-0.0140552939847,0.0370583981276,-1.46557056904,0.740007042885,-9.67538166046,0.0,-0.00153846165631,-1.689011693,0.0,-1.46557056904,0.740007042885,-9.67538166046,-0.00235613901168,-0.00519337225705,0.0698708146811,-0.01122400444,0.175971344113,0.398644804955,1013.07995605,1.41519832611,31.1899986267,0.0,0.0,0.0,0.0,-0.352798014879,0.0,0.0,-0.03463357687,0.0,0.0,0.0,0,3,1,,,,,,,,,,,,,,,,-0.0088351406157,0.0014391685836,-0.003120792564,0.0,0,2,1.0,0,1,0.0,0.0025641026441,0.0,0.0222772285342,0.99816006422,0.937343358994,-0.998161792755,-2.47037157179e+14,7,10.0,10.0,10.0,10.0,0.0,0.0,0.0,0.0,,,-0.0643195435405,0.0130838248879,0.0242198109627,,,,,,,,,,,,,,,,,,,,,,,,,,,,,,,,,,,,,,,,11.8171424866,11.8245029449,-1.0,-1.0,,,,,,,,,,,85107762,PX4FMU_V1,unknown_git_version,test,305419904.0,,,,,,,,,,,,,,
0.0132358688861,-0.00375575525686,-1.70938682556,-0.026926221326,-0.0183458924294,-0.00498005282134,-0.0600164271891,0.0324338451028,-9.45759773254,0.0,-0.00153846165631,-1.689011693,0.0,-0.0600164271891,0.0324338451028,-9.45759773254,-0.073163099587,-0.0492366664112,0.00506599619985,0.00437146006152,0.133527368307,0.410216152668,1013.07995605,1.41519832611,31.1899986267,0.0,0.0,0.0,0.0,-0.352370798588,0.0,0.0,-0.0345187783241,0.0,0.0,0.0,0,3,1,,,,,,,,,,,,,,,,-0.00508251832798,0.00382645567879,0.00380106922239,0.0,0,2,1.0,0,1,0.0,0.0025641026441,0.0,0.0222772285342,0.99816006422,0.937343358994,-0.998161792755,-2.47037157179e+14,7,10.0,10.0,10.0,10.0,0.0,0.0,0.0,0.0,,,-0.0660225152969,0.011088383384,0.0203604064882,,,,,,,,,,,,,,,,,,,,,,,,,,,,,,,,,,,,,,,,11.8255233765,11.8244962692,-1.0,-1.0,,,,,,,,,,,85129735,PX4FMU_V1,unknown_git_version,test,305419904.0,,,,,,,,,,,,,,
0.012987786904,-0.00405359221622,-1.70746076107,0.0267560184002,0.0239523407072,-0.00787767861038,0.553807199001,-0.674398720264,-9.74315643311,0.0,-0.00153846165631,-1.689011693,0.0,0.553807199001,-0.674398720264,-9.74315643311,0.0598071068525,0.0526024103165,-0.0250322073698,0.0218016766012,0.119379386306,0.404875546694,1013.07995605,1.41519832611,31.1899986267,0.0,0.0,0.0,0.0,-0.353522717953,0.0,0.0,-0.0349423289299,0.0,0.0,0.0,0,3,1,,,,,,,,,,,,,,,,-0.0119018768892,-0.00147875363473,0.00394653901458,0.0,0,2,1.0,0,1,0.0,0.0025641026441,0.0,0.0222772285342,0.99816006422,0.937343358994,-0.998161792755,-2.47037157179e+14,7,10.0,10.0,10.0,10.0,0.0,0.0,0.0,0.0,,,-0.0647968873382,0.0125773120672,0.018432578072,,,,,,,,,,,,,,,,,,,,,,,,,,,,,,,,,,,,,,,,11.8171424866,11.8244810104,-1.0,-1.0,,,,,,,,,,,85150883,PX4FMU_V1,unknown_git_version,test,305419904.0,,,,,,,,,,,,,,
0.0127658136189,-0.00416396837682,-1.70356667042,-0.0238047484308,-0.0257196202874,0.0251994766295,-0.751562178135,0.290268272161,-10.0146799088,0.0,-0.00153846165631,-1.689011693,0.0,-0.751562178135,0.290268272161,-10.0146799088,-0.0154240494594,-0.0221565458924,0.0385204404593,0.0236364454031,0.136024072766,0.40131509304,1013.09997559,1.24869441986,31.1899986267,0.0,0.0,0.0,0.0,-0.351004689932,0.0,0.0,-0.0338090695441,0.0,0.0,0.0,0,3,1,,,,,,,,,,,,,,,,-0.00518858805299,0.00505028152838,-0.00159920728765,0.0,0,2,1.0,0,1,0.0,0.0025641026441,0.0,0.0222772285342,0.99816006422,0.937343358994,-0.998161792755,-2.47037157179e+14,7,10.0,10.0,10.0,10.0,0.0,0.0,0.0,0.0,,,-0.0637169629335,0.0131287015975,0.0145380953327,,,,,,,,,,,,,,,,,,,,,,,,,,,,,,,,,,,,,,,,11.8255233765,11.8244829178,-1.0,-1.0,,,,,,,,,,,85173251,PX4FMU_V1,unknown_git_version,test,305419904.0,,,,,,,,,,,,,,
0.0130874849856,-0.00385371828452,-1.7053810358,0.022914359346,0.0238977763802,-0.0158252306283,0.736721754074,-0.40494209528,-9.3298368454,0.0,-0.00153846165631,-1.689011693,0.0,0.736721754074,-0.40494209528,-9.3298368454,0.0178314521909,0.0171732343733,-0.0231999550015,-0.0561756454408,0.123540557921,0.38440310955,1013.10998535,1.16544353962,31.1899986267,0.0,0.0,0.0,0.0,-0.349483937025,0.0,0.0,-0.0335663631558,0.0,0.0,0.0,0,3,1,,,,,,,,,,,,,,,,-0.0114693464711,-0.00160161708482,0.00482690613717,0.0,0,2,1.0,0,1,0.0,0.0025641026441,0.0,0.0222772285342,0.99816006422,0.937343358994,-0.998161792755,-2.47037157179e+14,7,10.0,10.0,10.0,10.0,0.0,0.0,0.0,0.0,,,-0.0653113871813,0.0115776443854,0.0163541436195,,,,,,,,,,,,,,,,,,,,,,,,,,,,,,,,,,,,,,,,11.8255233765,11.8244838715,-1.0,-1.0,,,,,,,,,,,85194178,PX4FMU_V1,unknown_git_version,test,305419904.0,,,,,,,,,,,,,,
0.0127767724916,-0.00412070192397,-1.69733715057,-0.0263524353504,-0.0227954871953,0.0195062924176,-0.585519790649,0.162453398108,-9.90635585785,0.0,0.0,-1.689011693,0.0,-0.585519790649,0.162453398108,-9.90635585785,-0.0285111162812,-0.0210805982351,0.0237040184438,0.0438188128173,0.171810179949,0.38173276186,1013.13000488,0.998943567276,31.1899986267,0.0,0.0,0.0,0.0,-0.348244696856,0.0,0.0,-0.0326669365168,0.0,0.0,0.0,0,3,1,,,,,,,,,,,,,,,,-0.00487903784961,0.00564194237813,-0.0016810685629,0.0,0,2,1.0,0,1,0.0,-0.0,0.0,0.0198019798845,0.99816006422,0.937343358994,-0.998161792755,-2.47037157179e+14,7,10.0,10.0,10.0,10.0,0.0,0.0,0.0,0.0,,,-0.063883498311,0.020604070276,0.00829916913062,,,,,,,,,,,,,,,,,,,,,,,,,,,,,,,,,,,,,,,,11.8171424866,11.8244771957,-1.0,-1.0,,,,,,,,,,,85215335,PX4FMU_V1,unknown_git_version,test,305419904.0,,,,,,,,,,,,,,
0.0130006186664,-0.00395717844367,-1.69114041328,0.0282211918384,0.0198626797646,-0.0112429261208,0.486999571323,-0.481434226036,-9.78116703033,0.0,-0.00153846165631,-1.689011693,0.0,0.486999571323,-0.481434226036,-9.78116703033,0.029268283397,0.0186014901847,-0.00947031658143,0.0172147732228,0.165984541178,0.376392126083,1013.05999756,1.58170485497,31.1899986267,0.0,0.0,0.0,0.0,-0.346503973007,0.0,0.0,-0.0320976115763,0.0,0.0,0.0,0,3,1,,,,,,,,,,,,,,,,-0.0121170114726,-0.0010099359788,0.00200338754803,0.0,0,2,1.0,0,1,0.0,0.0025641026441,0.0,0.0198019798845,0.99816006422,0.937343358994,-0.998161792755,-2.47037157179e+14,7,10.0,10.0,10.0,10.0,0.0,0.0,0.0,0.0,,,-0.0649865940213,0.0120939407498,0.00211299047805,,,,,,,,,,,,,,,,,,,,,,,,,,,,,,,,,,,,,,,,11.7752380371,11.8244199753,-1.0,-1.0,,,,,,,,,,,85237630,PX4FMU_V1,unknown_git_version,test,305419904.0,,,,,,,,,,,,,,
0.0127691691741,-0.00411364575848,-1.68983948231,-0.035051446408,-0.0234807431698,0.0150088882074,-0.21341778338,0.137071192265,-9.74467086792,0.0,-0.00153846165631,-1.689011693,0.0,-0.21341778338,0.137071192265,-9.74467086792,-0.0535873025656,-0.0342785567045,0.0169173497707,-0.0185630451888,0.14767536521,0.412886500359,1013.10998535,1.16544353962,31.1899986267,0.0,0.0,0.0,0.0,-0.349693745375,0.0,0.0,-0.0338188745081,0.0,0.0,0.0,0,3,1,,,,,,,,,,,,,,,,-0.00374242383987,0.00472641177475,-0.00212963158265,0.0,0,2,1.0,0,1,0.0,0.0025641026441,0.0,0.0198019798845,1.0,0.937343358994,-0.998161792755,-2.47037157179e+14,7,10.0,10.0,10.0,10.0,0.0,0.0,0.0,0.0,,,-0.0638393238187,0.0128762722015,0.000811345002148,,,,,,,,,,,,,,,,,,,,,,,,,,,,,,,,,,,,,,,,11.7249526978,11.8242378235,-1.0,-1.0,,,,,,,,,,,85258545,PX4FMU_V1,unknown_git_version,test,305419904.0,,,,,,,,,,,,,,
0.0126185184345,-0.00426402920857,-1.69153153896,0.0285852793604,0.0187309645116,0.00199701730162,-0.187636733055,-0.0480017960072,-9.74700260162,0.0,-0.00153846165631,-1.689011693,0.0,-0.187636733055,-0.0480017960072,-9.74700260162,0.0610525980592,0.0412658490241,-0.00373035203665,-0.0359932780266,0.131030678749,0.408435970545,1013.08996582,1.33194601536,31.1899986267,0.0,0.0,0.0,0.0,-0.348853260279,0.0,0.0,-0.0334939323366,0.0,0.0,0.0,0,3,1,,,,,,,,,,,,,,,,-0.0119155813009,-0.000663356971927,7.5845993706e-05,0.0,0,2,1.0,0,1,0.0,0.0025641026441,0.0,0.0222772285342,0.99816006422,0.937343358994,-0.998161792755,-2.47037157179e+14,7,10.0,10.0,10.0,10.0,0.0,0.0,0.0,0.0,,,-0.0630730465055,0.013628218323,0.00250265724026,,,,,,,,,,,,,,,,,,,,,,,,,,,,,,,,,,,,,,,,11.7081899643,11.8241214752,-1.0,-1.0,,,,,,,,,,,85279840,PX4FMU_V1,unknown_git_version,test,305419904.0,,,,,,,,,,,,,,
0.012865790166,-0.00399367883801,-1.68775320053,-0.0254270136356,-0.0138419568539,-0.00286350515671,-0.00802097003907,0.0344660170376,-9.81368255615,0.0,-0.00153846165631,-1.689011693,0.0,-0.00802097003907,0.0344660170376,-9.81368255615,-0.0454965010285,-0.0298303216696,0.00158974900842,-0.000215443928028,0.182629227638,0.40042501688,1013.09997559,1.24869441986,31.1899986267,0.0,0.0,0.0,0.0,-0.348182797432,0.0,0.0,-0.0330350361764,0.0,0.0,0.0,0,3,1,,,,,,,,,,,,,,,,-0.00505849393085,0.00339538953267,0.000238372726017,0.0,0,2,1.0,0,1,0.0,0.0025641026441,0.0,0.0222772285342,0.99816006422,0.937343358994,-0.998161792755,-2.47037157179e+14,7,10.0,10.0,10.0,10.0,0.0,0.0,0.0,0.0,,,-0.0643385052681,0.0122764250264,-0.00127435370814,,,,,,,,,,,,,,,,,,,,,,,,,,,,,,,,,,,,,,,,11.7333335876,11.823923111,-1.0,-1.0,,,,,,,,,,,85301679,PX4FMU_V1,unknown_git_version,test,305419904.0,,,,,,,,,,,,,,
0.0125793637708,-0.00428468128666,-1.68980181217,0.011623904109,0.00259927799925,0.0155950346962,-0.43518742919,0.0452180095017,-9.71384048462,0.0,-0.00153846165631,-1.689011693,0.0,-0.43518742919,0.0452180095017,-9.71384048462,0.0372913889587,0.020365934819,0.00968728400767,-0.0359932780266,0.180132523179,0.394194245338,1013.07000732,1.49845123291,31.1899986267,0.0,0.0,0.0,0.0,-0.346758514643,0.0,0.0,-0.0322850123048,0.0,0.0,0.0,0,3,1,,,,,,,,,,,,,,,,-0.00968688353896,0.00144718366209,-0.00222332822159,0.0,0,2,1.0,0,1,0.0,0.0025641026441,0.0,0.0198019798845,0.99816006422,0.937343358994,-0.998161792755,-2.47037157179e+14,7,10.0,10.0,10.0,10.0,0.0,0.0,0.0,0.0,,,-0.0628905892372,0.0137314610183,0.000772847735789,,,,,,,,,,,,,,,,,,,,,,,,,,,,,,,,,,,,,,,,11.7249526978,11.8237247467,-1.0,-1.0,,,,,,,,,,,85322228,PX4FMU_V1,unknown_git_version,test,305419904.0,,,,,,,,,,,,,,
0.0130887674168,-0.00387493497692,-1.6904053688,0.0124456966296,0.0129119427875,-0.00477036181837,0.379770845175,-0.463730156422,-9.65072250366,0.0,-0.00153846165631,-1.689011693,0.0,0.379770845175,-0.463730156422,-9.65072250366,-0.00907021574676,-0.0015333252959,-0.00271809333935,-0.0314063727856,0.165152296424,0.388853609562,1013.07995605,1.41519832611,31.1899986267,0.0,0.0,0.0,0.0,-0.347773760557,0.0,0.0,-0.0328799076378,0.0,0.0,0.0,0,3,1,,,,,,,,,,,,,,,,-0.010124229826,-0.000159801507834,0.000922311155591,0.0,0,2,1.0,0,1,0.0,0.0025641026441,0.0,0.0222772285342,0.99816006422,0.937343358994,-0.998161792755,-2.47037157179e+14,7,10.0,10.0,10.0,10.0,0.0,0.0,0.0,0.0,,,-0.0654329955578,0.0116827003658,0.00137837859802,,,,,,,,,,,,,,,,,,,,,,,,,,,,,,,,,,,,,,,,11.7249526978,11.8235273361,-1.0,-1.0,,,,,,,,,,,85343248,PX4FMU_V1,unknown_git_version,test,305419904.0,,,,,,,,,,,,,,
0.0125341266394,-0.00427077244967,-1.68961238861,-0.0156725943089,-0.0131205832586,0.0114098992199,-0.510845839977,0.474139004946,-9.82326507568,0.0,0.0,-1.689011693,0.0,-0.510845839977,0.474139004946,-9.82326507568,0.00471225846559,0.00120084593073,0.0183185599744,-0.021315196529,0.176803588867,0.409326046705,1013.10998535,1.16544353962,31.1899986267,0.0,0.0,0.0,0.0,-0.348422020674,0.0,0.0,-0.0331432931125,0.0,0.0,0.0,0,3,1,,,,,,,,,,,,,,,,-0.00610969448462,0.00448174960911,-0.00162540387828,0.0,0,2,1.0,0,1,0.0,-0.0,0.0,0.0198019798845,1.0,0.93483710289,-0.996323525906,-2.47037157179e+14,7,10.0,10.0,10.0,10.0,0.0,0.0,0.0,0.0,,,-0.0626702457666,0.0213544163853,0.000573873519897,,,,,,,,,,,,,,,,,,,,,,,,,,,,,,,,,,,,,,,,11.7249526978,11.8233308792,-1.0,-1.0,,,,,,,,,,,85365687,PX4FMU_V1,unknown_git_version,test,305419904.0,,,,,,,,,,,,,,
0.013011245057,-0.00396165577695,-1.68880963326,0.0267315004021,0.0210095923394,0.000255042657955,0.244899362326,-0.481640338898,-9.63451194763,0.0,-0.00153846165631,-1.689011693,0.0,0.244899362326,-0.481640338898,-9.63451194763,0.0167681537569,0.0166358556598,-0.0084182638675,-0.012141388841,0.150172069669,0.429798513651,1013.07995605,1.41519832611,31.1899986267,0.0,0.0,0.0,0.0,-0.348106563091,0.0,0.0,-0.0333604626358,0.0,0.0,0.0,0,3,1,,,,,,,,,,,,,,,,-0.0119325881824,-0.00115612661466,-7.09368468961e-05,0.0,0,2,1.0,0,1,0.0,0.0025641026441,0.0,0.0198019798845,1.0,0.937343358994,-0.998161792755,-2.47037157179e+14,7,10.0,10.0,10.0,10.0,0.0,0.0,0.0,0.0,,,-0.0650576427579,0.0121163101867,-0.000217869615881,,,,,,,,,,,,,,,,,,,,,,,,,,,,,,,,,,,,,,,,11.7249526978,11.8232326508,-1.0,-1.0,,,,,,,,,,,85386514,PX4FMU_V1,unknown_git_version,test,305419904.0,,,,,,,,,,,,,,
0.0127784209326,-0.00401222752407,-1.68855273724,-0.0250374227762,-0.0168138761073,0.00316983507946,-0.0388628132641,0.00903409346938,-9.90683174133,0.0,-0.00153846165631,-1.689011693,0.0,-0.0388628132641,0.00903409346938,-9.90683174133,-0.0322442017496,-0.0247573666275,0.0120197888464,-0.0148935252801,0.155997723341,0.395084351301,1013.07000732,1.49845123291,31.1899986267,0.0,0.0,0.0,0.0,-0.349192976952,0.0,0.0,-0.0338778831065,0.0,0.0,0.0,0,3,1,,,,,,,,,,,,,,,,-0.00505154998973,0.00379379442893,-0.000546687864698,0.0,0,2,1.0,0,1,0.0,0.0025641026441,0.0,0.0222772285342,0.99816006422,0.937343358994,-0.998161792755,-2.47037157179e+14,7,10.0,10.0,10.0,10.0,0.0,0.0,0.0,0.0,,,-0.0638955011964,0.0123691596091,-0.000474750471767,,,,,,,,,,,,,,,,,,,,,,,,,,,,,,,,,,,,,,,,11.7165708542,11.8230276108,-1.0,-1.0,,,,,,,,,,,85407743,PX4FMU_V1,unknown_git_version,test,305419904.0,,,,,,,,,,,,,,
0.0128053007647,-0.004105867818,-1.68852555752,0.0295688826591,0.0192272085696,0.00665245763958,0.0508119910955,-0.334782749414,-9.75636291504,0.0,-0.00153846165631,-1.689011693,0.0,0.0508119910955,-0.334782749414,-9.75636291504,0.0442802459002,0.0313208214939,-0.000884550856426,-0.0167282931507,0.16681677103,0.396864563227,1013.09997559,1.24869441986,31.1899986267,0.0,0.0,0.0,0.0,-0.348877996206,0.0,0.0,-0.0338566415012,0.0,0.0,0.0,0,3,1,,,,,,,,,,,,,,,,-0.0121678672731,-0.000830678385682,-0.00107326440047,0.0,0,2,1.0,0,1,0.0,0.0025641026441,0.0,0.0198019798845,1.0,0.937343358994,-0.998161792755,-2.47037157179e+14,7,10.0,10.0,10.0,10.0,0.0,0.0,0.0,0.0,,,-0.0640301033854,0.0128373745829,-0.000502637936734,,,,,,,,,,,,,,,,,,,,,,,,,,,,,,,,,,,,,,,,11.7249526978,11.8228311539,-1.0,-1.0,,,,,,,,,,,85429741,PX4FMU_V1,unknown_git_version,test,305419904.0,,,,,,,,,,,,,,
0.0129602402449,-0.00388000789098,-1.68894696236,-0.0168760307133,-0.0100150695071,-0.00713082123548,0.12465262413,-0.129408091307,-9.7152261734,0.0,-0.00153846165631,-1.689011693,0.0,0.12465262413,-0.129408091307,-9.7152261734,-0.0424664877355,-0.0306899733841,-0.00654163584113,-0.0194804295897,0.149339839816,0.428018301725,1013.07000732,1.49845123291,31.1899986267,0.0,0.0,0.0,0.0,-0.349556654692,0.0,0.0,-0.034294821322,0.0,0.0,0.0,0,3,1,,,,,,,,,,,,,,,,-0.00623032031581,0.00282400567085,0.00105763378087,0.0,0,2,1.0,0,1,0.0,0.0025641026441,0.0,0.0222772285342,0.99816006422,0.937343358994,-0.998161792755,-2.47037157179e+14,7,10.0,10.0,10.0,10.0,0.0,0.0,0.0,0.0,,,-0.0648015737534,0.0117080528289,-7.99297413323e-05,,,,,,,,,,,,,,,,,,,,,,,,,,,,,,,,,,,,,,,,11.7165708542,11.8226270676,-1.0,-1.0,,,,,,,,,,,85451078,PX4FMU_V1,unknown_git_version,test,305419904.0,,,,,,,,,,,,,,
0.0125167407095,-0.00426548300311,-1.68842625618,0.0055352570489,0.00128741620574,0.0200712475926,-0.668062925339,0.405578136444,-9.76955032349,0.0,-0.00153846165631,-1.689011693,0.0,-0.668062925339,0.405578136444,-9.76955032349,0.0409364588559,0.0248040053993,0.0190759096295,-0.00571973156184,0.122708320618,0.40042501688,1013.11999512,1.08219325542,31.1999988556,0.0,0.0,0.0,0.0,-0.349242866039,0.0,0.0,-0.0340982154012,0.0,0.0,0.0,0,3,1,,,,,,,,,,,,,,,,-0.00885602924973,0.00160524563398,-0.0031010620296,0.0,0,2,1.0,0,1,0.0,0.0025641026441,0.0,0.0222772285342,0.99816006422,0.937343358994,-0.998161792755,-2.47037157179e+14,7,10.0,10.0,10.0,10.0,0.0,0.0,0.0,0.0,,,-0.0625880435109,0.0136354602873,-0.000602497893851,,,,,,,,,,,,,,,,,,,,,,,,,,,,,,,,,,,,,,,,11.7249526978,11.8225297928,-1.0,-1.0,,,,,,,,,,,85472182,PX4FMU_V1,unknown_git_version,test,305419904.0,,,,,,,,,,,,,,
0.0130651174113,-0.00379556789994,-1.68754732609,-0.00668457709253,0.000287349801511,-0.00687220366672,0.204946056008,-0.14485733211,-9.76542472839,0.0,0.0,-1.689011693,0.0,0.204946056008,-0.14485733211,-9.76542472839,-0.037112891674,-0.021556828171,-0.00707585737109,-0.00113282771781,0.111057035625,0.414666712284,1013.07995605,1.41519832611,31.1999988556,0.0,0.0,0.0,0.0,-0.349247872829,0.0,0.0,-0.0343223847449,0.0,0.0,0.0,0,3,1,,,,,,,,,,,,,,,,-0.00762328924611,0.00242983340286,0.000807460630313,0.0,0,2,1.0,0,1,0.0,-0.0,0.0,0.0198019798845,0.99816006422,0.939849615097,-1.0,-2.47037157179e+14,7,10.0,10.0,10.0,10.0,0.0,0.0,0.0,0.0,,,-0.0653252676129,0.0189783778042,-0.00148913322482,,,,,,,,,,,,,,,,,,,,,,,,,,,,,,,,,,,,,,,,11.7249526978,11.8223428726,-1.0,-1.0,,,,,,,,,,,85493936,PX4FMU_V1,unknown_git_version,test,305419904.0,,,,,,,,,,,,,,
0.0125017082319,-0.00423444388434,-1.68855273724,-0.0116149494424,-0.0108328219503,0.0193065796047,-0.603459894657,0.436499714851,-9.79503631592,0.0,0.0,-1.689011693,0.0,-0.603459894657,0.436499714851,-9.79503631592,0.0158223249018,0.00708054471761,0.0325037613511,-0.0259020999074,0.170977935195,0.397754698992,1013.07995605,1.41519832611,31.1999988556,0.0,0.0,0.0,0.0,-0.349848121405,0.0,0.0,-0.0346608906984,0.0,0.0,0.0,0,3,1,,,,,,,,,,,,,,,,-0.00661611976102,0.00416072783992,-0.00296880467795,0.0,0,2,1.0,0,1,0.0,-0.0,0.0,0.0198019798845,1.0,0.93483710289,-0.996323525906,-2.47037157179e+14,7,10.0,10.0,10.0,10.0,0.0,0.0,0.0,0.0,,,-0.0625081807375,0.0211727805436,-0.000485450058477,,,,,,,,,,,,,,,,,,,,,,,,,,,,,,,,,,,,,,,,11.7333335876,11.8221654892,-1.0,-1.0,,,,,,,,,,,85514603,PX4FMU_V1,unknown_git_version,test,305419904.0,,,,,,,,,,,,,,
0.0131967086345,-0.00382163515314,-1.68778824806,0.0283925682306,0.022256039083,-0.0052183335647,0.512333810329,-0.801322698593,-9.60506629944,0.0,-0.00153846165631,-1.689011693,0.0,0.512333810329,-0.801322698593,-9.60506629944,0.00402170140296,0.010856741108,-0.0203322451562,-0.0268194694072,0.176803588867,0.40131509304,1013.13995361,0.915694594383,31.1999988556,0.0,0.0,0.0,0.0,-0.34900996089,0.0,0.0,-0.0349116176367,0.0,0.0,0.0,0,3,1,,,,,,,,,,,,,,,,-0.0122701022774,-0.0014091784833,0.000596971483901,0.0,0,2,1.0,0,1,0.0,0.0025641026441,0.0,0.0198019798845,1.0,0.937343358994,-0.998161792755,-2.47037157179e+14,7,10.0,10.0,10.0,10.0,0.0,0.0,0.0,0.0,,,-0.0659928396344,0.0114162042737,-0.00123852398247,,,,,,,,,,,,,,,,,,,,,,,,,,,,,,,,,,,,,,,,11.7500953674,11.8219966888,-1.0,-1.0,,,,,,,,,,,85535777,PX4FMU_V1,unknown_git_version,test,305419904.0,,,,,,,,,,,,,,
0.0125764328986,-0.00420046458021,-1.68711233139,-0.0238891802728,-0.0199617985636,0.0142786130309,-0.595509707928,0.362279891968,-9.82719993591,0.0,-0.00153846165631,-1.689011693,0.0,-0.595509707928,0.362279891968,-9.82719993591,-0.0062994658947,-0.00888658687472,0.0283071193844,-0.0240673329681,0.205931812525,0.402205199003,1013.05999756,1.58170485497,31.1999988556,0.0,0.0,0.0,0.0,-0.348137199879,0.0,0.0,-0.0346369743347,0.0,0.0,0.0,0,3,1,,,,,,,,,,,,,,,,-0.00507096666843,0.00432538241148,-0.002429200802,0.0,0,2,1.0,0,1,0.0,0.0025641026441,0.0,0.0198019798845,1.0,0.937343358994,-0.998161792755,-2.47037157179e+14,7,10.0,10.0,10.0,10.0,0.0,0.0,0.0,0.0,,,-0.0628966167569,0.0133103746921,-0.00191605743021,,,,,,,,,,,,,,,,,,,,,,,,,,,,,,,,,,,,,,,,11.7249526978,11.8218107224,-1.0,-1.0,,,,,,,,,,,85558035,PX4FMU_V1,unknown_git_version,test,305419904.0,,,,,,,,,,,,,,
0.013128795661,-0.00388803705573,-1.68553423882,0.0370043255389,0.0274401400238,0.00218995194882,0.361864060163,-0.758241057396,-9.6009721756,0.0,-0.00153846165631,-1.689011693,0.0,0.361864060163,-0.758241057396,-9.6009721756,0.0291787777096,0.0272472240031,-0.012322422117,-0.00847186800092,0.10689586401,0.412886500359,1013.10998535,1.16544353962,31.1899986267,0.0,0.0,0.0,0.0,-0.348852097988,0.0,0.0,-0.0355662629008,0.0,0.0,0.0,0,3,1,,,,,,,,,,,,,,,,-0.0133477421477,-0.00203994428739,-0.000852418132126,0.0,0,2,1.0,0,1,0.0,0.0025641026441,0.0,0.0222772285342,0.99816006422,0.937343358994,-0.998161792755,-2.47037157179e+14,7,10.0,10.0,10.0,10.0,0.0,0.0,0.0,0.0,,,-0.0656706169248,0.0117482598871,-0.00349283544347,,,,,,,,,,,,,,,,,,,,,,,,,,,,,,,,,,,,,,,,11.7417144775,11.8217306137,-1.0,-1.0,,,,,,,,,,,85578982,PX4FMU_V1,unknown_git_version,test,305419904.0,,,,,,,,,,,,,,
0.0127312364057,-0.00401522545144,-1.68682765961,-0.0379210487008,-0.0278487093747,-0.00412733945996,-0.218957677484,0.101373314857,-9.8972902298,0.0,-0.00153846165631,-1.689011693,0.0,-0.218957677484,0.101373314857,-9.8972902298,-0.0457855500281,-0.037536278367,0.00675053708255,-0.035075891763,0.141017496586,0.409326046705,1013.07995605,1.41519832611,31.1899986267,0.0,0.0,0.0,0.0,-0.347959399223,0.0,0.0,-0.0352279022336,0.0,0.0,0.0,0,3,1,,,,,,,,,,,,,,,,-0.0033477328252,0.00523027451709,0.000289123418042,0.0,0,2,1.0,0,1,0.0,0.0025641026441,0.0,0.0198019798845,0.99816006422,0.937343358994,-0.998161792755,-2.47037157179e+14,7,10.0,10.0,10.0,10.0,0.0,0.0,0.0,0.0,,,-0.0636728405952,0.0123841706663,-0.00219985004514,,,,,,,,,,,,,,,,,,,,,,,,,,,,,,,,,,,,,,,,11.7333335876,11.8215618134,-1.0,-1.0,,,,,,,,,,,85600230,PX4FMU_V1,unknown_git_version,test,305419904.0,,,,,,,,,,,,,,
0.012965192087,-0.00397867197171,-1.6842290163,0.0432108975947,0.0301078762859,0.00942759867758,0.307684183121,-0.69690066576,-9.70951461792,0.0,-0.00153846165631,-1.689011693,0.0,0.307684183121,-0.69690066576,-9.70951461792,0.0487890690565,0.0383496768773,-0.00845038425177,0.0135452533141,0.16931347549,0.391523957253,1013.09997559,1.24869441986,31.1999988556,0.0,0.0,0.0,0.0,-0.349191278219,0.0,0.0,-0.036286663264,0.0,0.0,0.0,0,3,1,,,,,,,,,,,,,,,,-0.014049555175,-0.00232783216052,-0.0021339058876,0.0,0,2,1.0,0,1,0.0,0.0025641026441,0.0,0.0222772285342,0.99816006422,0.937343358994,-0.998161792755,-2.47037157179e+14,7,10.0,10.0,10.0,10.0,0.0,0.0,0.0,0.0,,,-0.064862601459,0.0122014759108,-0.00479843979701,,,,,,,,,,,,,,,,,,,,,,,,,,,,,,,,,,,,,,,,11.7333335876,11.8213777542,-1.0,-1.0,,,,,,,,,,,85622213,PX4FMU_V1,unknown_git_version,test,305419904.0,,,,,,,,,,,,,,
0.0128084551543,-0.0039220303297,-1.68587911129,-0.0337659306824,-0.0230042897165,-0.0111094266176,0.0194364376366,0.0993863493204,-9.77831268311,0.0,-0.00153846165631,-1.689011693,0.0,0.0194364376366,0.0993863493204,-9.77831268311,-0.0507349558175,-0.0413929708302,-0.00314990291372,-0.0341585092247,0.125205025077,0.414666712284,1013.05999756,1.58170485497,31.1999988556,0.0,0.0,0.0,0.0,-0.350395292044,0.0,0.0,-0.0372793525457,0.0,0.0,0.0,0,3,1,,,,,,,,,,,,,,,,-0.00393904093653,0.00453992374241,0.00119424436707,0.0,0,2,1.0,0,1,0.0,0.0025641026441,0.0,0.0222772285342,0.99816006422,0.937343358994,-0.998161792755,-2.47037157179e+14,7,10.0,10.0,10.0,10.0,0.0,0.0,0.0,0.0,,,-0.0640662461519,0.0119182020426,-0.00314779719338,,,,,,,,,,,,,,,,,,,,,,,,,,,,,,,,,,,,,,,,11.7333335876,11.8212022781,-1.0,-1.0,,,,,,,,,,,85643616,PX4FMU_V1,unknown_git_version,test,305419904.0,,,,,,,,,,,,,,
0.0125936055556,-0.00421106955037,-1.68573987484,0.0272370651364,0.0165972709656,0.0272028855979,-0.331417053938,0.108826301992,-9.71649360657,0.0,0.0,-1.689011693,0.0,-0.331417053938,0.108826301992,-9.71649360657,0.0650629326701,0.0448057316244,0.0224305950105,-0.0378280431032,0.127701729536,0.420007348061,1013.07000732,1.49845123291,31.1999988556,0.0,0.0,0.0,0.0,-0.352824062109,0.0,0.0,-0.0386807247996,0.0,0.0,0.0,0,3,1,,,,,,,,,,,,,,,,-0.0117266103625,0.000579621468205,-0.00457519199699,0.0,0,2,1.0,0,1,0.0,-0.0,0.0,0.0198019798845,1.0,0.93483710289,-0.998161792755,-2.47037157179e+14,7,10.0,10.0,10.0,10.0,0.0,0.0,0.0,0.0,,,-0.0629676356912,0.0210558976978,-0.00329839321785,,,,,,,,,,,,,,,,,,,,,,,,,,,,,,,,,,,,,,,,11.7249526978,11.821105957,-1.0,-1.0,,,,,,,,,,,85664725,PX4FMU_V1,unknown_git_version,test,305419904.0,,,,,,,,,,,,,,
0.0129295932129,-0.00382417440414,-1.68243479729,-0.0291967950761,-0.0170333385468,-0.0154765173793,0.11214838177,0.0498236566782,-9.78745746613,0.0,0.0,-1.689011693,0.0,0.11214838177,0.0498236566782,-9.78745746613,-0.0600204505026,-0.0407684892416,-0.0115064028651,-0.0103066358715,0.163487836719,0.388853609562,1013.08996582,1.33194601536,31.1999988556,0.0,0.0,0.0,0.0,-0.350699484348,0.0,0.0,-0.0376552529633,0.0,0.0,0.0,0,3,1,,,,,,,,,,,,,,,,-0.0046086111106,0.0047001154162,0.0013312267838,0.0,0,2,1.0,0,1,0.0,-0.0,0.0,0.0198019798845,0.99816006422,0.937343358994,-0.998161792755,-2.47037157179e+14,7,10.0,10.0,10.0,10.0,0.0,0.0,0.0,0.0,,,-0.0646476522088,0.0191213972867,-0.00660167215392,,,,,,,,,,,,,,,,,,,,,,,,,,,,,,,,,,,,,,,,11.7333335876,11.820939064,-1.0,-1.0,,,,,,,,,,,85686468,PX4FMU_V1,unknown_git_version,test,305419904.0,,,,,,,,,,,,,,
0.0124959014356,-0.00424171239138,-1.68235826492,0.015217971988,0.0073445783928,0.0258855111897,-0.544624626637,0.219880774617,-9.79608917236,0.0,-0.00153846165631,-1.689011693,0.0,-0.544624626637,0.219880774617,-9.79608917236,0.0592930912971,0.0385133102536,0.0288327001035,-0.0332411415875,0.173474654555,0.402205199003,1013.07000732,1.49845123291,31.1999988556,0.0,0.0,0.0,0.0,-0.351163685322,0.0,0.0,-0.0379302166402,0.0,0.0,0.0,0,3,1,,,,,,,,,,,,,,,,-0.0101073076949,0.00080238643568,-0.00488337315619,0.0,0,2,1.0,0,1,0.0,0.0025641026441,0.0,0.0198019798845,1.0,0.937343358994,-0.998161792755,-2.47037157179e+14,7,10.0,10.0,10.0,10.0,0.0,0.0,0.0,0.0,,,-0.0625305473804,0.0135167818516,-0.0066703078337,,,,,,,,,,,,,,,,,,,,,,,,,,,,,,,,,,,,,,,,11.7333335876,11.820763588,-1.0,-1.0,,,,,,,,,,,85707032,PX4FMU_V1,unknown_git_version,test,305419904.0,,,,,,,,,,,,,,
0.0131285162643,-0.00369696202688,-1.68237662315,-0.00604607118294,-0.000153941175085,-0.0155593613163,0.379365921021,-0.30469506979,-9.690574646,0.0,0.0,-1.689011693,0.0,0.379365921021,-0.30469506979,-9.690574646,-0.0519925169647,-0.0325712710619,-0.0268198773265,-0.0259020999074,0.135191857815,0.41644692421,1013.10998535,1.16544353962,31.1899986267,0.0,0.0,0.0,0.0,-0.352776378393,0.0,0.0,-0.0393118858337,0.0,0.0,0.0,0,3,1,,,,,,,,,,,,,,,,-0.00774750625715,0.00242310622707,0.00133500422817,0.0,0,2,1.0,0,1,0.0,-0.0,0.0,0.0198019798845,1.0,0.93483710289,-0.996323525906,-2.47037157179e+14,7,10.0,10.0,10.0,10.0,0.0,0.0,0.0,0.0,,,-0.0656422749162,0.0184853374958,-0.00665933359414,,,,,,,,,,,,,,,,,,,,,,,,,,,,,,,,,,,,,,,,11.7333335876,11.8205881119,-1.0,-1.0,,,,,,,,,,,85728226,PX4FMU_V1,unknown_git_version,test,305419904.0,,,,,,,,,,,,,,
0.0124019114301,-0.00427373917773,-1.68033206463,0.010029620491,0.00244980445132,0.0293698851019,-0.706663072109,0.459248006344,-9.77202606201,0.0,-0.00153846165631,-1.689011693,0.0,-0.706663072109,0.459248006344,-9.77202606201,0.0551068559289,0.0338300056756,0.036154255271,-0.01122400444,0.178468048573,0.389743715525,1013.07000732,1.49845123291,31.1899986267,0.0,0.0,0.0,0.0,-0.352682173252,0.0,0.0,-0.0394350625575,0.0,0.0,0.0,0,3,1,,,,,,,,,,,,,,,,-0.00937375426292,0.00145953951869,-0.00570996664464,0.0,0,2,1.0,0,1,0.0,0.0025641026441,0.0,0.0198019798845,1.0,0.937343358994,-0.998161792755,-2.47037157179e+14,7,10.0,10.0,10.0,10.0,0.0,0.0,0.0,0.0,,,-0.0620761848986,0.0136770317331,-0.00869655888528,,,,,,,,,,,,,,,,,,,,,,,,,,,,,,,,,,,,,,,,11.7333335876,11.8204145432,-1.0,-1.0,,,,,,,,,,,85750699,PX4FMU_V1,unknown_git_version,test,305419904.0,,,,,,,,,,,,,,
0.0131937712431,-0.00367991556413,-1.67977881432,0.00812595244497,0.00889809522778,-0.0155730694532,0.558650314808,-0.627449929714,-9.6132850647,0.0,-0.00153846165631,-1.689011693,0.0,0.558650314808,-0.627449929714,-9.6132850647,-0.0375746674836,-0.0221273023635,-0.0313717126846,0.00712359650061,0.113553732634,0.417337030172,1013.10998535,1.16544353962,31.1999988556,0.0,0.0,0.0,0.0,-0.354311138391,0.0,0.0,-0.040606264025,0.0,0.0,0.0,0,3,1,,,,,,,,,,,,,,,,-0.00964154489338,0.000235275685554,0.000948914152104,0.0,0,2,1.0,0,1,0.0,0.0025641026441,0.0,0.0198019798845,1.0,0.937343358994,-0.998161792755,-2.47037157179e+14,7,10.0,10.0,10.0,10.0,0.0,0.0,0.0,0.0,,,-0.0660397782922,0.01070790831,-0.00924697518349,,,,,,,,,,,,,,,,,,,,,,,,,,,,,,,,,,,,,,,,11.7249526978,11.8203191757,-1.0,-1.0,,,,,,,,,,,85771487,PX4FMU_V1,unknown_git_version,test,305419904.0,,,,,,,,,,,,,,
0.0123310983181,-0.00427016895264,-1.68077588081,-0.0269111655653,-0.0232920441777,0.0201958790421,-0.698783934116,0.632306993008,-9.83913612366,0.0,-0.00153846165631,-1.689011693,0.0,-0.698783934116,0.632306993008,-9.83913612366,0.00455255433917,-0.00460642855614,0.0440098010004,-0.0433323159814,0.186790406704,0.388853609562,1013.07995605,1.41519832611,31.1999988556,0.0,0.0,0.0,0.0,-0.353931307793,0.0,0.0,-0.0402843877673,0.0,0.0,0.0,0,3,1,,,,,,,,,,,,,,,,-0.00452497554943,0.00480365380645,-0.00426727440208,0.0,0,2,1.0,0,1,0.0,0.0025641026441,0.0,0.0198019798845,1.0,0.937343358994,-0.998161792755,-2.47037157179e+14,7,10.0,10.0,10.0,10.0,0.0,0.0,0.0,0.0,,,-0.061718672514,0.0136591382325,-0.00825261604041,,,,,,,,,,,,,,,,,,,,,,,,,,,,,,,,,,,,,,,,11.7333335876,11.820145607,-1.0,-1.0,,,,,,,,,,,85792706,PX4FMU_V1,unknown_git_version,test,305419904.0,,,,,,,,,,,,,,
0.0131973940879,-0.00370653369464,-1.67780506611,0.0221057031304,0.0190789904445,-0.0112710790709,0.642833471298,-0.905200362206,-9.60025501251,0.0,-0.00153846165631,-1.689011693,0.0,0.642833471298,-0.905200362206,-9.60025501251,-0.0178882423788,-0.00815789960325,-0.0304951742291,0.0190495401621,0.120211623609,0.414666712284,1013.08996582,1.33194601536,31.1999988556,0.0,0.0,0.0,0.0,-0.354538530111,0.0,0.0,-0.0409784130752,0.0,0.0,0.0,0,3,1,,,,,,,,,,,,,,,,-0.0114632388577,-0.00107091816608,7.52680944061e-06,0.0,0,2,1.0,0,1,0.0,0.0025641026441,0.0,0.0222772285342,0.99816006422,0.937343358994,-0.998161792755,-2.47037157179e+14,7,10.0,10.0,10.0,10.0,0.0,0.0,0.0,0.0,,,-0.0660730600357,0.0108411582187,-0.0112209003419,,,,,,,,,,,,,,,,,,,,,,,,,,,,,,,,,,,,,,,,11.7333335876,11.8199634552,-1.0,-1.0,,,,,,,,,,,85814706,PX4FMU_V1,unknown_git_version,test,305419904.0,,,,,,,,,,,,,,
0.0123329535127,-0.00423923274502,-1.67828547955,-0.0358283221722,-0.027275396511,0.0121172266081,-0.615154147148,0.65574324131,-9.8607339859,0.0,-0.00153846165631,-1.689011693,0.0,-0.615154147148,0.65574324131,-9.8607339859,-0.0103655830026,-0.0128311198205,0.0401247180998,0.00895836390555,0.146010890603,0.410216152668,1013.07995605,1.41519832611,31.2099990845,0.0,0.0,0.0,0.0,-0.351508706808,0.0,0.0,-0.0393734648824,0.0,0.0,0.0,0,3,1,,,,,,,,,,,,,,,,-0.00336944288574,0.00530140381306,-0.00342900492251,0.0,0,2,1.0,0,1,0.0,0.0025641026441,0.0,0.0198019798845,1.0,0.937343358994,-0.998161792755,-2.47037157179e+14,7,10.0,10.0,10.0,10.0,0.0,0.0,0.0,0.0,,,-0.0617471151054,0.0135046346113,-0.0107428049669,,,,,,,,,,,,,,,,,,,,,,,,,,,,,,,,,,,,,,,,11.7333335876,11.8197898865,-1.0,-1.0,,,,,,,,,,,85836035,PX4FMU_V1,unknown_git_version,test,305419904.0,,,,,,,,,,,,,,
0.0130436643958,-0.00383087689988,-1.67880749702,0.0473868921399,0.0358772873878,0.0079495459795,0.660207986832,-0.868467926979,-9.67730236053,0.0,-0.00307692331262,-1.689011693,0.0,0.660207986832,-0.868467926979,-9.67730236053,0.0362336970866,0.0330325514078,-0.0162858497351,-0.0249847173691,0.146843135357,0.408435970545,1013.07995605,1.41519832611,31.2099990845,0.0,0.0,0.0,0.0,-0.352790236473,0.0,0.0,-0.0403070449829,0.0,0.0,0.0,0,3,1,,,,,,,,,,,,,,,,-0.0127734234557,-0.00294818473049,-0.000686628045514,0.0,0,2,1.0,0,1,0.0,0.0051282052882,0.0,0.0198019798845,1.0,0.937343358994,-0.998161792755,-2.47037157179e+14,7,10.0,10.0,10.0,10.0,0.0,0.0,0.0,0.0,,,-0.0660433471203,0.00318762753159,-0.0104642054066,,,,,,,,,,,,,,,,,,,,,,,,,,,,,,,,,,,,,,,,11.7249526978,11.8196086884,-1.0,-1.0,,,,,,,,,,,85857363,PX4FMU_V1,unknown_git_version,test,305419904.0,,,,,,,,,,,,,,
0.012443382293,-0.00414790213108,-1.68157732487,-0.0376078337431,-0.0277915969491,0.00517262145877,-0.52618765831,0.515119850636,-9.84437942505,0.0,-0.00153846165631,-1.689011693,0.0,-0.52618765831,0.515119850636,-9.84437942505,-0.0223997235298,-0.0202744696289,0.0379133298993,-0.0570930279791,0.167649000883,0.385293215513,1013.11999512,1.08219325542,31.1999988556,0.0,0.0,0.0,0.0,-0.352755904198,0.0,0.0,-0.0400102287531,0.0,0.0,0.0,0,3,1,,,,,,,,,,,,,,,,-0.00320659391582,0.00530911423266,-0.00189348484855,0.0,0,2,1.0,0,1,0.0,0.0025641026441,0.0,0.0222772285342,0.99816006422,0.937343358994,-0.998161792755,-2.47037157179e+14,7,10.0,10.0,10.0,10.0,0.0,0.0,0.0,0.0,,,-0.0622739419341,0.01304774452,-0.00745061039925,,,,,,,,,,,,,,,,,,,,,,,,,,,,,,,,,,,,,,,,11.7249526978,11.8195142746,-1.0,-1.0,,,,,,,,,,,85879441,PX4FMU_V1,unknown_git_version,test,305419904.0,,,,,,,,,,,,,,
0.0130422469229,-0.0038770372048,-1.67838788033,0.0494541302323,0.0339215286076,0.0153609625995,0.405061870813,-0.875189006329,-9.66412734985,0.0,-0.00153846165631,-1.689011693,0.0,0.405061870813,-0.875189006329,-9.66412734985,0.050271037966,0.037837959826,-0.0148681402206,0.0263885818422,0.141849726439,0.402205199003,1013.10998535,1.16544353962,31.1999988556,0.0,0.0,0.0,0.0,-0.351716428995,0.0,0.0,-0.0394873134792,0.0,0.0,0.0,0,3,1,,,,,,,,,,,,,,,,-0.0149171035737,-0.00288962526247,-0.00390000105835,0.0,0,2,1.0,0,1,0.0,0.0025641026441,0.0,0.0222772285342,0.99816006422,0.937343358994,-0.998161792755,-2.47037157179e+14,7,10.0,10.0,10.0,10.0,0.0,0.0,0.0,0.0,,,-0.065292827785,0.0116936406121,-0.0106390435249,,,,,,,,,,,,,,,,,,,,,,,,,,,,,,,,,,,,,,,,11.7249526978,11.8193340302,-1.0,-1.0,,,,,,,,,,,85900659,PX4FMU_V1,unknown_git_version,test,305419904.0,,,,,,,,,,,,,,
0.0125133562833,-0.00408103270456,-1.68153429031,-0.0400322787464,-0.0280130691826,-0.000709608139005,-0.536153435707,0.475760757923,-9.92424964905,0.0,-0.00153846165631,-1.689011693,0.0,-0.536153435707,0.475760757923,-9.92424964905,-0.0290879961103,-0.0238427594304,0.0333869084716,-0.044249702245,0.167649000883,0.391523957253,1013.10998535,1.16544353962,31.1999988556,0.0,0.0,0.0,0.0,-0.349977135658,0.0,0.0,-0.0383840538561,0.0,0.0,0.0,0,3,1,,,,,,,,,,,,,,,,-0.00293694506399,0.00529444077983,-0.00101754663046,0.0,0,2,1.0,0,1,0.0,0.0025641026441,0.0,0.0198019798845,1.0,0.937343358994,-0.998161792755,-2.47037157179e+14,7,10.0,10.0,10.0,10.0,0.0,0.0,0.0,0.0,,,-0.0626241639256,0.0127133987844,-0.00749325240031,,,,,,,,,,,,,,,,,,,,,,,,,,,,,,,,,,,,,,,,11.7333335876,11.8191623688,-1.0,-1.0,,,,,,,,,,,85922884,PX4FMU_V1,unknown_git_version,test,305419904.0,,,,,,,,,,,,,,
0.0129968654364,-0.00389055418782,-1.67938005924,0.0460611358285,0.0312762930989,0.0177094526589,0.311524629593,-0.699066281319,-9.70379829407,0.0,-0.00153846165631,-1.689011693,0.0,0.311524629593,-0.699066281319,-9.70379829407,0.0516568124294,0.0388290658593,-0.0072058616206,0.010793116875,0.175139114261,0.40042501688,1013.10998535,1.16544353962,31.1899986267,0.0,0.0,0.0,0.0,-0.347740024328,0.0,0.0,-0.0372302792966,0.0,0.0,0.0,0,3,1,,,,,,,,,,,,,,,,-0.0144455274567,-0.00253696832806,-0.0041034379974,0.0,0,2,1.0,0,1,0.0,0.0025641026441,0.0,0.0222772285342,0.99816006422,0.937343358994,-0.998161792755,-2.47037157179e+14,7,10.0,10.0,10.0,10.0,0.0,0.0,0.0,0.0,,,-0.0650583133101,0.0117611521855,-0.00964680034667,,,,,,,,,,,,,,,,,,,,,,,,,,,,,,,,,,,,,,,,11.7333335876,11.8189907074,-1.0,-1.0,,,,,,,,,,,85943850,PX4FMU_V1,unknown_git_version,test,305419904.0,,,,,,,,,,,,,,
0.0127448337153,-0.00391404749826,-1.68046152592,-0.0406629219651,-0.0258424133062,-0.0248557720333,-0.0732244923711,0.230018854141,-9.80306529999,0.0,0.0,-1.689011693,0.0,-0.0732244923711,0.230018854141,-9.80306529999,-0.0569783598185,-0.0408660173416,-0.0115248374641,-0.0451670847833,0.131030678749,0.407545864582,1013.07995605,1.41519832611,31.1899986267,0.0,0.0,0.0,0.0,-0.347989857197,0.0,0.0,-0.0371155850589,0.0,0.0,0.0,0,3,1,,,,,,,,,,,,,,,,-0.00299791921861,0.00590371340513,0.00244209356606,0.0,0,2,1.0,0,1,0.0,-0.0,0.0,0.0198019798845,0.99816006422,0.937343358994,-0.998161792755,-2.47037157179e+14,7,10.0,10.0,10.0,10.0,0.0,0.0,0.0,0.0,,,-0.0637238398194,0.0195707678795,-0.00857514888048,,,,,,,,,,,,,,,,,,,,,,,,,,,,,,,,,,,,,,,,11.7333335876,11.8189048767,-1.0,-1.0,,,,,,,,,,,85965033,PX4FMU_V1,unknown_git_version,test,305419904.0,,,,,,,,,,,,,,
0.0129015548155,-0.00397374155,-1.67844831944,0.0444829463959,0.0287088993937,0.0247583687305,0.0573423691094,-0.560429692268,-9.69615364075,0.0,-0.00153846165631,-1.689011693,0.0,0.0573423691094,-0.560429692268,-9.69615364075,0.0573658496141,0.0401159226894,-0.00246641016565,0.00895836390555,0.160991117358,0.410216152668,1013.14996338,0.832446336746,31.1899986267,0.0,0.0,0.0,0.0,-0.344616770744,0.0,0.0,-0.035442776978,0.0,0.0,0.0,0,3,1,,,,,,,,,,,,,,,,-0.0141793396324,-0.00214912532829,-0.00530060334131,0.0,0,2,1.0,0,1,0.0,0.0025641026441,0.0,0.0198019798845,1.0,0.937343358994,-0.998161792755,-2.47037157179e+14,7,10.0,10.0,10.0,10.0,0.0,0.0,0.0,0.0,,,-0.0645889043808,0.0121771655977,-0.0105789871886,,,,,,,,,,,,,,,,,,,,,,,,,,,,,,,,,,,,,,,,11.7249526978,11.8187255859,-1.0,-1.0,,,,,,,,,,,85986992,PX4FMU_V1,unknown_git_version,test,305419904.0,,,,,,,,,,,,,,
0.0127955675125,-0.00387512915768,-1.67767214775,-0.0378617532551,-0.0230233184993,-0.0247776731849,0.0366204977036,0.211218252778,-9.71648216248,0.0,-0.00153846165631,-1.689011693,0.0,0.0366204977036,0.211218252778,-9.71648216248,-0.0613053403795,-0.043603643775,-0.0174971297383,0.0062062125653,0.18845488131,0.404875546694,1013.11999512,1.08219325542,31.1899986267,0.0,0.0,0.0,0.0,-0.3442479074,0.0,0.0,-0.0352520942688,0.0,0.0,0.0,0,3,1,,,,,,,,,,,,,,,,-0.00340641546063,0.00451197102666,0.00201348424889,0.0,0,2,1.0,0,1,0.0,0.0025641026441,0.0,0.0222772285342,0.99816006422,0.937343358994,-0.998161792755,-2.47037157179e+14,7,10.0,10.0,10.0,10.0,0.0,0.0,0.0,0.0,,,-0.0640649497509,0.011684153229,-0.0113544454798,,,,,,,,,,,,,,,,,,,,,,,,,,,,,,,,,,,,,,,,11.7333335876,11.8185634613,-1.0,-1.0,,,,,,,,,,,86009332,PX4FMU_V1,unknown_git_version,test,305419904.0,,,,,,,,,,,,,,
0.0128064276651,-0.00403262069449,-1.67900025845,0.0445131063461,0.0286608133465,0.0325695537031,-0.0356632769108,-0.401595950127,-9.71436977386,0.0,-0.00153846165631,-1.689011693,0.0,-0.0356632769108,-0.401595950127,-9.71436977386,0.0664383769035,0.0473562404513,0.0136978980154,-0.00205021142028,0.141017496586,0.413776606321,1013.16998291,0.665951728821,31.1899986267,0.0,0.0,0.0,0.0,-0.34148389101,0.0,0.0,-0.0337755046785,0.0,0.0,0.0,0,3,1,,,,,,,,,,,,,,,,-0.0141208730638,-0.00210460834205,-0.0063895364292,0.0,0,2,1.0,0,1,0.0,0.0025641026441,0.0,0.0198019798845,1.0,0.937343358994,-0.998161792755,-2.47037157179e+14,7,10.0,10.0,10.0,10.0,0.0,0.0,0.0,0.0,,,-0.0641089975834,0.0124715166166,-0.0100273545831,,,,,,,,,,,,,,,,,,,,,,,,,,,,,,,,,,,,,,,,11.7333335876,11.8183937073,-1.0,-1.0,,,,,,,,,,,86031284,PX4FMU_V1,unknown_git_version,test,305419904.0,,,,,,,,,,,,,,
0.0128513453528,-0.00384954619221,-1.67771482468,-0.0358009785414,-0.0207942277193,-0.0303422026336,0.166690453887,0.185509458184,-9.77934265137,0.0,-0.00153846165631,-1.689011693,0.0,0.166690453887,0.185509458184,-9.77934265137,-0.0678744316101,-0.0452482551336,-0.0290528573096,-0.00205021142028,0.164320066571,0.409326046705,1013.13000488,0.998943567276,31.1899986267,0.0,0.0,0.0,0.0,-0.335892736912,0.0,0.0,-0.0310916807503,0.0,0.0,0.0,0,3,1,,,,,,,,,,,,,,,,-0.00371052813716,0.00420555984601,0.00285458914004,0.0,0,2,1.0,0,1,0.0,0.0025641026441,0.0,0.0198019798845,1.0,0.937343358994,-0.998161792755,-2.47037157179e+14,7,10.0,10.0,10.0,10.0,0.0,0.0,0.0,0.0,,,-0.0643435046077,0.0115562332794,-0.011311609298,,,,,,,,,,,,,,,,,,,,,,,,,,,,,,,,,,,,,,,,11.7333335876,11.8182239532,-1.0,-1.0,,,,,,,,,,,86051760,PX4FMU_V1,unknown_git_version,test,305419904.0,,,,,,,,,,,,,,
0.0124648613855,-0.0042395638302,-1.67911958694,0.0189997181296,0.00889777112752,0.0368326976895,-0.602201163769,0.260148286819,-9.70838928223,0.0,0.0,-1.689011693,0.0,-0.602201163769,0.260148286819,-9.70838928223,0.0600107833743,0.0377206727862,0.0452892631292,-0.0167282931507,0.12603725493,0.408435970545,1013.10998535,1.16544353962,31.1899986267,0.0,0.0,0.0,0.0,-0.333483546972,0.0,0.0,-0.0298353489488,0.0,0.0,0.0,0,3,1,,,,,,,,,,,,,,,,-0.0105720730498,0.00159907725174,-0.00701267598197,0.0,0,2,1.0,0,1,0.0,-0.0,0.0,0.0198019798845,1.0,0.93483710289,-0.996323525906,-2.47037157179e+14,7,10.0,10.0,10.0,10.0,0.0,0.0,0.0,0.0,,,-0.062323924154,0.0211983658373,-0.00991847272962,,,,,,,,,,,,,,,,,,,,,,,,,,,,,,,,,,,,,,,,11.7249526978,11.8181304932,-1.0,-1.0,,,,,,,,,,,86073022,PX4FMU_V1,unknown_git_version,test,305419904.0,,,,,,,,,,,,,,
0.0128946769983,-0.0038441750221,-1.67784905434,-0.0249583348632,-0.0140043059364,-0.028769813478,0.191530808806,0.0290125198662,-9.68947124481,0.0,-0.00153846165631,-1.689011693,0.0,0.191530808806,0.0290125198662,-9.68947124481,-0.0613291859627,-0.0402934104204,-0.0323401838541,-0.0048023480922,0.138520792127,0.396864563227,1013.10998535,1.16544353962,31.1700000763,0.0,0.0,0.0,0.0,-0.330227136612,0.0,0.0,-0.028062324971,0.0,0.0,0.0,0,3,1,,,,,,,,,,,,,,,,-0.00514810439199,0.00331937731244,0.00263884942979,0.0,0,2,1.0,0,1,0.0,0.0025641026441,0.0,0.0222772285342,0.99816006422,0.937343358994,-0.998161792755,-2.47037157179e+14,7,10.0,10.0,10.0,10.0,0.0,0.0,0.0,0.0,,,-0.0645591393113,0.0115293655545,-0.0111774830148,,,,,,,,,,,,,,,,,,,,,,,,,,,,,,,,,,,,,,,,11.7333335876,11.8179521561,-1.0,-1.0,,,,,,,,,,,86095337,PX4FMU_V1,unknown_git_version,test,305419904.0,,,,,,,,,,,,,,
0.0124115031213,-0.00424580601975,-1.6787930727,0.0137775531039,0.00585673097521,0.0411844886839,-0.55725312233,0.295694231987,-9.81321334839,0.0,-0.00153846165631,-1.689011693,0.0,-0.55725312233,0.295694231987,-9.81321334839,0.0582785718143,0.0363560430706,0.0602043569088,-0.0304889902472,0.16931347549,0.40042501688,1013.07000732,1.49845123291,31.1700000763,0.0,0.0,0.0,0.0,-0.330025613308,0.0,0.0,-0.0278066471219,0.0,0.0,0.0,0,3,1,,,,,,,,,,,,,,,,-0.00986875779927,0.00099849619437,-0.00771298073232,0.0,0,2,1.0,0,1,0.0,0.0025641026441,0.0,0.0198019798845,0.99816006422,0.937343358994,-0.998161792755,-2.47037157179e+14,7,10.0,10.0,10.0,10.0,0.0,0.0,0.0,0.0,,,-0.0621359758079,0.0135374711826,-0.01023537945,,,,,,,,,,,,,,,,,,,,,,,,,,,,,,,,,,,,,,,,11.7249526978,11.8177747726,-1.0,-1.0,,,,,,,,,,,86116209,PX4FMU_V1,unknown_git_version,test,305419904.0,,,,,,,,,,,,,,
0.013121875003,-0.00375841115601,-1.67587351799,0.00323632964864,0.00571224885061,-0.0220116116107,0.445001542568,-0.557507455349,-9.66049575806,0.0,-0.00153846165631,-1.689011693,0.0,0.445001542568,-0.557507455349,-9.66049575806,-0.0428111255169,-0.0235575549304,-0.045921869576,0.0190495401621,0.119379386306,0.398644804955,1013.11999512,1.08219325542,31.1799983978,0.0,0.0,0.0,0.0,-0.331448823214,0.0,0.0,-0.0285327713937,0.0,0.0,0.0,0,3,1,,,,,,,,,,,,,,,,-0.00896306429058,0.000700502248947,0.00132883654442,0.0,0,2,1.0,0,1,0.0,0.0025641026441,0.0,0.0198019798845,1.0,0.937343358994,-0.998161792755,-2.47037157179e+14,7,10.0,10.0,10.0,10.0,0.0,0.0,0.0,0.0,,,-0.0657103210688,0.0111007280648,-0.0131527017802,,,,,,,,,,,,,,,,,,,,,,,,,,,,,,,,,,,,,,,,11.7333335876,11.8175983429,-1.0,-1.0,,,,,,,,,,,86137489,PX4FMU_V1,unknown_git_version,test,305419904.0,,,,,,,,,,,,,,
0.0124100185931,-0.0042568044737,-1.67865419388,0.00815246161073,0.00132580753416,0.038356076926,-0.607558727264,0.329968124628,-9.75378608704,0.0,-0.00153846165631,-1.689011693,0.0,-0.607558727264,0.329968124628,-9.75378608704,0.0527820773423,0.0314409136772,0.0635875910521,-0.0451670847833,0.181796982884,0.398644804955,1013.08996582,1.33194601536,31.1799983978,0.0,0.0,0.0,0.0,-0.330699890852,0.0,0.0,-0.0278232116252,0.0,0.0,0.0,0,3,1,,,,,,,,,,,,,,,,-0.00913666933775,0.00159466674086,-0.00730956532061,0.0,0,2,1.0,0,1,0.0,0.0025641026441,0.0,0.0198019798845,1.0,0.937343358994,-0.998161792755,-2.47037157179e+14,7,10.0,10.0,10.0,10.0,0.0,0.0,0.0,0.0,,,-0.0621296130121,0.0135924750939,-0.0103743541986,,,,,,,,,,,,,,,,,,,,,,,,,,,,,,,,,,,,,,,,11.7333335876,11.8174304962,-1.0,-1.0,,,,,,,,,,,86159403,PX4FMU_V1,unknown_git_version,test,305419904.0,,,,,,,,,,,,,,
0.0131664657965,-0.00376101536676,-1.67640936375,0.0104994634166,0.00994592905045,-0.0194937940687,0.444571912289,-0.570554733276,-9.65212345123,0.0,-0.00153846165631,-1.689011693,0.0,0.444571912289,-0.570554733276,-9.65212345123,-0.0324561670423,-0.0172804649919,-0.0488625951111,0.00253669242375,0.131862893701,0.383513003588,1013.08996582,1.33194601536,31.1799983978,0.0,0.0,0.0,0.0,-0.330952256918,0.0,0.0,-0.0281454734504,0.0,0.0,0.0,0,3,1,,,,,,,,,,,,,,,,-0.00993571989238,0.000151810396346,0.00103154056706,0.0,0,2,1.0,0,1,0.0,0.0025641026441,0.0,0.0222772285342,0.99816006422,0.937343358994,-0.998161792755,-2.47037157179e+14,7,10.0,10.0,10.0,10.0,0.0,0.0,0.0,0.0,,,-0.0659291520715,0.0111137013882,-0.012616856955,,,,,,,,,,,,,,,,,,,,,,,,,,,,,,,,,,,,,,,,11.7333335876,11.8173465729,-1.0,-1.0,,,,,,,,,,,86180781,PX4FMU_V1,unknown_git_version,test,305419904.0,,,,,,,,,,,,,,
0.012405090034,-0.00418111914769,-1.67685484886,-0.0173272415996,-0.0142351035029,0.0189982056618,-0.620612978935,0.53863799572,-9.76148414612,0.0,-0.00153846165631,-1.689011693,0.0,-0.620612978935,0.53863799572,-9.76148414612,0.0181199461222,0.00481085292995,0.058296866715,0.0227190610021,0.138520792127,0.411996394396,1013.13000488,0.998943567276,31.1899986267,0.0,0.0,0.0,0.0,-0.329071432352,0.0,0.0,-0.0270720962435,0.0,0.0,0.0,0,3,1,,,,,,,,,,,,,,,,-0.00582290487364,0.0035684092436,-0.00467570777982,0.0,0,2,1.0,0,1,0.0,0.0025641026441,0.0,0.0222772285342,0.99816006422,0.937343358994,-0.998161792755,-2.47037157179e+14,7,10.0,10.0,10.0,10.0,0.0,0.0,0.0,0.0,,,-0.0621188208461,0.0132141998038,-0.0121731786057,,,,,,,,,,,,,,,,,,,,,,,,,,,,,,,,,,,,,,,,11.7417144775,11.8171873093,-1.0,-1.0,,,,,,,,,,,86201964,PX4FMU_V1,unknown_git_version,test,305419904.0,,,,,,,,,,,,,,
0.0131420725957,-0.0037609108258,-1.67583394051,0.00629841955379,0.00766915315762,-0.0175427906215,0.356377780437,-0.502556085587,-9.6717748642,0.0,-0.00153846165631,-1.689011693,0.0,0.356377780437,-0.502556085587,-9.6717748642,-0.0350382886827,-0.0172066595405,-0.0453652702272,0.0236364454031,0.133527368307,0.40042501688,1013.10998535,1.16544353962,31.1899986267,0.0,0.0,0.0,0.0,-0.326307564974,0.0,0.0,-0.0259961746633,0.0,0.0,0.0,0,3,1,,,,,,,,,,,,,,,,-0.00937430467457,0.000447730591986,0.000652569753584,0.0,0,2,1.0,0,1,0.0,0.0025641026441,0.0,0.0222772285342,0.99816006422,0.937343358994,-0.998161792755,-2.47037157179e+14,7,10.0,10.0,10.0,10.0,0.0,0.0,0.0,0.0,,,-0.0658116191626,0.0111132347956,-0.0131923258305,,,,,,,,,,,,,,,,,,,,,,,,,,,,,,,,,,,,,,,,11.7333335876,11.8170194626,-1.0,-1.0,,,,,,,,,,,86224178,PX4FMU_V1,unknown_git_version,test,305419904.0,,,,,,,,,,,,,,
0.0124035393819,-0.00416498724371,-1.67816007137,-0.0185958780348,-0.0144691970199,0.0159228034317,-0.498578727245,0.381652534008,-9.8051815033,0.0,-0.00153846165631,-1.689011693,0.0,-0.498578727245,0.381652534008,-9.8051815033,0.0126214046031,0.00199594115838,0.0578642040491,-0.0332411415875,0.143514186144,0.392414063215,1013.13000488,0.998943567276,31.1700000763,0.0,0.0,0.0,0.0,-0.323888063431,0.0,0.0,-0.0247011557221,0.0,0.0,0.0,0,3,1,,,,,,,,,,,,,,,,-0.00565567007288,0.00358833977953,-0.0040186024271,0.0,0,2,1.0,0,1,0.0,0.0025641026441,0.0,0.0222772285342,0.99816006422,0.937343358994,-0.998161792755,-2.47037157179e+14,7,10.0,10.0,10.0,10.0,0.0,0.0,0.0,0.0,,,-0.0621010325849,0.013133417815,-0.0108678787947,,,,,,,,,,,,,,,,,,,,,,,,,,,,,,,,,,,,,,,,11.7249526978,11.8168439865,-1.0,-1.0,,,,,,,,,,,86245378,PX4FMU_V1,unknown_git_version,test,305419904.0,,,,,,,,,,,,,,
0.013174646534,-0.00375608121976,-1.67751812935,0.012412567623,0.011345977895,-0.0154325990006,0.445095539093,-0.729747772217,-9.57297229767,0.0,-0.00153846165631,-1.689011693,0.0,0.445095539093,-0.729747772217,-9.57297229767,-0.0294122993946,-0.0122536765411,-0.0510536953807,-0.0497539751232,0.140185251832,0.388853609562,1013.10998535,1.16544353962,31.1700000763,0.0,0.0,0.0,0.0,-0.322462379932,0.0,0.0,-0.0243874564767,0.0,0.0,0.0,0,3,1,,,,,,,,,,,,,,,,-0.0101886317134,-3.34164578817e-05,0.000588673807215,0.0,0,2,1.0,0,1,0.0,0.0025641026441,0.0,0.0222772285342,0.99816006422,0.937343358994,-0.998161792755,-2.47037157179e+14,7,10.0,10.0,10.0,10.0,0.0,0.0,0.0,0.0,,,-0.0659615248442,0.0110889282078,-0.0115081071854,,,,,,,,,,,,,,,,,,,,,,,,,,,,,,,,,,,,,,,,11.7333335876,11.8166770935,-1.0,-1.0,,,,,,,,,,,86267847,PX4FMU_V1,unknown_git_version,test,305419904.0,,,,,,,,,,,,,,
0.0123924696818,-0.00416372017935,-1.67905819416,-0.0212049558759,-0.0165723431855,0.00888659339398,-0.574122369289,0.429246306419,-9.87628650665,0.0,-0.00153846165631,-1.689011693,0.0,-0.574122369289,0.429246306419,-9.87628650665,0.0106953745708,-0.000521549372934,0.0506458207965,-0.017645675689,0.141849726439,0.398644804955,1013.13995361,0.915694594383,31.1599998474,0.0,0.0,0.0,0.0,-0.320236504078,0.0,0.0,-0.023121047765,0.0,0.0,0.0,0,3,1,,,,,,,,,,,,,,,,-0.00530839711428,0.00386091601104,-0.00282843969762,0.0,0,2,1.0,0,1,0.0,0.0025641026441,0.0,0.0198019798845,1.0,0.937343358994,-0.998161792755,-2.47037157179e+14,7,10.0,10.0,10.0,10.0,0.0,0.0,0.0,0.0,,,-0.062038782984,0.013127011247,-0.00996967032552,,,,,,,,,,,,,,,,,,,,,,,,,,,,,,,,,,,,,,,,11.7333335876,11.8165941238,-1.0,-1.0,,,,,,,,,,,86288609,PX4FMU_V1,unknown_git_version,test,305419904.0,,,,,,,,,,,,,,
0.0131051586941,-0.0038113258779,-1.67505943775,0.0359832905233,0.0245601143688,0.012534737587,0.388548493385,-0.859577536583,-9.64148616791,0.0,-0.00153846165631,-1.689011693,0.0,0.388548493385,-0.859577536583,-9.64148616791,0.0175059232861,0.0163311120123,-0.0219863858074,-0.00847186800092,0.148507609963,0.407545864582,1013.09997559,1.24869441986,31.1599998474,0.0,0.0,0.0,0.0,-0.318499952555,0.0,0.0,-0.0224360805005,0.0,0.0,0.0,0,3,1,,,,,,,,,,,,,,,,-0.0132101178169,-0.00171531329397,-0.0039752679877,0.0,0,2,1.0,0,1,0.0,0.0025641026441,0.0,0.0198019798845,0.99816006422,0.937343358994,-0.998161792755,-2.47037157179e+14,7,10.0,10.0,10.0,10.0,0.0,0.0,0.0,0.0,,,-0.0656330063939,0.0113653959706,-0.0139670483768,,,,,,,,,,,,,,,,,,,,,,,,,,,,,,,,,,,,,,,,11.7249526978,11.8164196014,-1.0,-1.0,,,,,,,,,,,86309839,PX4FMU_V1,unknown_git_version,test,305419904.0,,,,,,,,,,,,,,
0.0123896859586,-0.00415162928402,-1.67676770687,-0.0277367271483,-0.0200623162091,-0.000557186140213,-0.434624195099,0.445484220982,-9.85014057159,0.0,-0.00153846165631,-1.689011693,0.0,-0.434624195099,0.445484220982,-9.85014057159,0.000566971837543,-0.00676867272705,0.0387093387544,0.00161930872127,0.171810179949,0.409326046705,1013.10998535,1.16544353962,31.1599998474,0.0,0.0,0.0,0.0,-0.317099332809,0.0,0.0,-0.0217448323965,0.0,0.0,0.0,0,3,1,,,,,,,,,,,,,,,,-0.00445974525064,0.00430677784607,-0.00175543548539,0.0,0,2,1.0,0,1,0.0,0.0025641026441,0.0,0.0222772285342,0.99816006422,0.937343358994,-0.998161792755,-2.47037157179e+14,7,10.0,10.0,10.0,10.0,0.0,0.0,0.0,0.0,,,-0.0620424598455,0.0130667462945,-0.0122600886971,,,,,,,,,,,,,,,,,,,,,,,,,,,,,,,,,,,,,,,,11.7417144775,11.8162622452,-1.0,-1.0,,,,,,,,,,,86331793,PX4FMU_V1,unknown_git_version,test,305419904.0,,,,,,,,,,,,,,
0.0130776306614,-0.00383726670407,-1.67631101608,0.03883074224,0.0252982079983,0.0209863483906,0.328779071569,-0.85756868124,-9.6369228363,0.0,-0.00153846165631,-1.689011693,0.0,0.328779071569,-0.85756868124,-9.6369228363,0.0251300092787,0.0197153966874,-0.0180256664753,-0.0488366037607,0.149339839816,0.398644804955,1013.10998535,1.16544353962,31.1599998474,0.0,0.0,0.0,0.0,-0.314687848091,0.0,0.0,-0.0208618547767,0.0,0.0,0.0,0,3,1,,,,,,,,,,,,,,,,-0.0135611398146,-0.00179442064837,-0.00505529018119,0.0,0,2,1.0,0,1,0.0,0.0025641026441,0.0,0.0198019798845,1.0,0.937343358994,-0.998161792755,-2.47037157179e+14,7,10.0,10.0,10.0,10.0,0.0,0.0,0.0,0.0,,,-0.0654857233167,0.0114949718118,-0.0127155836672,,,,,,,,,,,,,,,,,,,,,,,,,,,,,,,,,,,,,,,,11.7249526978,11.8160791397,-1.0,-1.0,,,,,,,,,,,86353179,PX4FMU_V1,unknown_git_version,test,305419904.0,,,,,,,,,,,,,,
0.0123855248094,-0.00410391483456,-1.67327904701,-0.030497521162,-0.0193701200187,-0.00323357246816,-0.346169441938,0.714199781418,-9.85942268372,0.0,-0.00153846165631,-1.689011693,0.0,-0.346169441938,0.714199781418,-9.85942268372,-0.00488409586251,-0.00963635928929,0.0347192250192,0.0254711974412,0.168481230736,0.408435970545,1013.07995605,1.41519832611,31.1599998474,0.0,0.0,0.0,0.0,-0.314478248358,0.0,0.0,-0.0207734927535,0.0,0.0,0.0,0,3,1,,,,,,,,,,,,,,,,-0.00410162750632,0.00418582558632,-0.00187722791452,0.0,0,2,1.0,0,1,0.0,0.0025641026441,0.0,0.0222772285342,0.99816006422,0.937343358994,-0.998161792755,-2.47037157179e+14,7,10.0,10.0,10.0,10.0,0.0,0.0,0.0,0.0,,,-0.0620485022664,0.0128285409883,-0.0157484244555,,,,,,,,,,,,,,,,,,,,,,,,,,,,,,,,,,,,,,,,11.7417144775,11.8159217834,-1.0,-1.0,,,,,,,,,,,86376055,PX4FMU_V1,unknown_git_version,test,305419904.0,,,,,,,,,,,,,,
0.0130574228242,-0.00381839694455,-1.67567110062,0.040122192353,0.0245973896235,0.025234978646,0.30955016613,-0.766975879669,-9.60705852509,0.0,-0.00153846165631,-1.689011693,0.0,0.30955016613,-0.766975879669,-9.60705852509,0.0288594868034,0.0188292022794,-0.0078514367342,-0.000215443928028,0.120211623609,0.392414063215,1013.13000488,0.998943567276,31.1599998474,0.0,0.0,0.0,0.0,-0.314085453749,0.0,0.0,-0.0208765119314,0.0,0.0,0.0,0,3,1,,,,,,,,,,,,,,,,-0.0137165356427,-0.00171557103749,-0.00578856281936,0.0,0,2,1.0,0,1,0.0,0.0025641026441,0.0,0.0222772285342,0.99816006422,0.937343358994,-0.998161792755,-2.47037157179e+14,7,10.0,10.0,10.0,10.0,0.0,0.0,0.0,0.0,,,-0.0653896182775,0.0114006884396,-0.0133554358035,,,,,,,,,,,,,,,,,,,,,,,,,,,,,,,,,,,,,,,,11.7249526978,11.8158311844,-1.0,-1.0,,,,,,,,,,,86397523,PX4FMU_V1,unknown_git_version,test,305419904.0,,,,,,,,,,,,,,
0.0124868024141,-0.00404698727652,-1.67490339279,-0.0337255038321,-0.0189027693123,-0.0149778146297,-0.179348647594,0.57216489315,-9.92118453979,0.0,-0.00153846165631,-1.689011693,0.0,-0.179348647594,0.57216489315,-9.92118453979,-0.0170117616653,-0.0128939123824,0.0165002010763,0.0218016766012,0.131030678749,0.40131509304,1013.10998535,1.16544353962,31.1599998474,0.0,0.0,0.0,0.0,-0.312012165785,0.0,0.0,-0.0198276266456,0.0,0.0,0.0,0,3,1,,,,,,,,,,,,,,,,-0.00374619849026,0.00408804323524,0.000128087500343,0.0,0,2,1.0,0,1,0.0,0.0025641026441,0.0,0.0222772285342,0.99816006422,0.937343358994,-0.998161792755,-2.47037157179e+14,7,10.0,10.0,10.0,10.0,0.0,0.0,0.0,0.0,,,-0.0625424161553,0.0125437183306,-0.0141238979995,,,,,,,,,,,,,,,,,,,,,,,,,,,,,,,,,,,,,,,,11.7333335876,11.8156661987,-1.0,-1.0,,,,,,,,,,,86420229,PX4FMU_V1,unknown_git_version,test,305419904.0,,,,,,,,,,,,,,
0.0129578569904,-0.00390070211142,-1.67409467697,0.0377325341105,0.0229849088937,0.0329447761178,0.108862668276,-0.682294130325,-9.70162582397,0.0,-0.00153846165631,-1.689011693,0.0,0.108862668276,-0.682294130325,-9.70162582397,0.0389510765672,0.0274476893246,0.0100806346163,-0.0268194694072,0.140185251832,0.406655758619,1013.10998535,1.16544353962,31.1599998474,0.0,0.0,0.0,0.0,-0.311156153679,0.0,0.0,-0.0196350626647,0.0,0.0,0.0,0,3,1,,,,,,,,,,,,,,,,-0.0133427381516,-0.00145242759027,-0.00718156108633,0.0,0,2,1.0,0,1,0.0,0.0025641026441,0.0,0.0222772285342,0.99816006422,0.937343358994,-0.998161792755,-2.47037157179e+14,7,10.0,10.0,10.0,10.0,0.0,0.0,0.0,0.0,,,-0.0649039149284,0.0118123888969,-0.0149322981015,,,,,,,,,,,,,,,,,,,,,,,,,,,,,,,,,,,,,,,,11.7249526978,11.8154764175,-1.0,-1.0,,,,,,,,,,,86440834,PX4FMU_V1,unknown_git_version,test,305419904.0,,,,,,,,,,,,,,
0.0127187343314,-0.00394242955372,-1.67725110054,-0.0340676680207,-0.0178557578474,-0.0319131091237,0.0290823765099,0.3088760674,-9.72533607483,0.0,-0.00153846165631,-1.689011693,0.0,0.0290823765099,0.3088760674,-9.72533607483,-0.0479746907949,-0.0261492822319,-0.0234219022095,-0.0625973045826,0.170977935195,0.412886500359,1013.09997559,1.24869441986,31.1499996185,0.0,0.0,0.0,0.0,-0.308594942093,0.0,0.0,-0.0186264403164,0.0,0.0,0.0,0,3,1,,,,,,,,,,,,,,,,-0.00385012407787,0.00388393900357,0.00302059692331,0.0,0,2,1.0,0,1,0.0,0.0025641026441,0.0,0.0222772285342,0.99816006422,0.937343358994,-0.998161792755,-2.47037157179e+14,7,10.0,10.0,10.0,10.0,0.0,0.0,0.0,0.0,,,-0.0636840090156,0.0120206978172,-0.011775797233,,,,,,,,,,,,,,,,,,,,,,,,,,,,,,,,,,,,,,,,11.7333335876,11.8153123856,-1.0,-1.0,,,,,,,,,,,86462037,PX4FMU_V1,unknown_git_version,test,305419904.0,,,,,,,,,,,,,,
0.0129385599867,-0.00391618022695,-1.6729875803,0.0395007990301,0.0213878918439,0.0376461409032,-0.0329288430512,-0.690087020397,-9.59590911865,0.0,-0.00153846165631,-1.689011693,0.0,-0.0329288430512,-0.690087020397,-9.59590911865,0.0458488836884,0.0283437073231,0.0178437512368,0.0172147732228,0.134359613061,0.393304169178,1013.08996582,1.33194601536,31.1499996185,0.0,0.0,0.0,0.0,-0.308548599482,0.0,0.0,-0.0188649799675,0.0,0.0,0.0,0,3,1,,,,,,,,,,,,,,,,-0.0135611742735,-0.00123473757412,-0.00805283710361,0.0,0,2,1.0,0,1,0.0,0.0025641026441,0.0,0.0198019798845,0.99816006422,0.937343358994,-0.998161792755,-2.47037157179e+14,7,10.0,10.0,10.0,10.0,0.0,0.0,0.0,0.0,,,-0.0648159235716,0.0118899103254,-0.0160394348204,,,,,,,,,,,,,,,,,,,,,,,,,,,,,,,,,,,,,,,,11.7333335876,11.8151483536,-1.0,-1.0,,,,,,,,,,,86484003,PX4FMU_V1,unknown_git_version,test,305419904.0,,,,,,,,,,,,,,
0.0127170663327,-0.00397408986464,-1.67603802681,-0.0340801142156,-0.0189312249422,-0.0339966006577,0.00455319881439,0.355669438839,-9.77497196198,0.0,-0.00153846165631,-1.689011693,0.0,0.00455319881439,0.355669438839,-9.77497196198,-0.0455125235021,-0.0266331881285,-0.0302787851542,-0.0231499485672,0.160158902407,0.411996394396,1013.09997559,1.24869441986,31.1599998474,0.0,0.0,0.0,0.0,-0.305677473545,0.0,0.0,-0.0174428150058,0.0,0.0,0.0,0,3,1,,,,,,,,,,,,,,,,-0.00384863396175,0.00404434418306,0.00315112131648,0.0,0,2,1.0,0,1,0.0,0.0025641026441,0.0,0.0198019798845,0.99816006422,0.937343358994,-0.998161792755,-2.47037157179e+14,7,10.0,10.0,10.0,10.0,0.0,0.0,0.0,0.0,,,-0.0636849924922,0.0121791176498,-0.0129891252145,,,,,,,,,,,,,,,,,,,,,,,,,,,,,,,,,,,,,,,,11.7249526978,11.8150577545,-1.0,-1.0,,,,,,,,,,,86505319,PX4FMU_V1,unknown_git_version,test,305419904.0,,,,,,,,,,,,,,
0.0127536365762,-0.00400728499517,-1.67629790306,0.0312119349837,0.0153882149607,0.0451157689095,-0.245285451412,-0.17228910327,-9.79302215576,0.0,-0.00153846165631,-1.689011693,0.0,-0.245285451412,-0.17228910327,-9.79302215576,0.05296330899,0.0298526417464,0.0556337200105,-0.0589277818799,0.172642409801,0.405765652657,1013.08996582,1.33194601536,31.1599998474,0.0,0.0,0.0,0.0,-0.305324792862,0.0,0.0,-0.0173441357911,0.0,0.0,0.0,0,3,1,,,,,,,,,,,,,,,,-0.0123601108789,-0.00039560845471,-0.00867679249495,0.0,0,2,1.0,0,1,0.0,0.0025641026441,0.0,0.0222772285342,0.99816006422,0.937343358994,-0.998161792755,-2.47037157179e+14,7,10.0,10.0,10.0,10.0,0.0,0.0,0.0,0.0,,,-0.0638658478856,0.0123450728133,-0.0127295097336,,,,,,,,,,,,,,,,,,,,,,,,,,,,,,,,,,,,,,,,11.7333335876,11.8149023056,-1.0,-1.0,,,,,,,,,,,86526635,PX4FMU_V1,unknown_git_version,test,305419904.0,,,,,,,,,,,,,,
0.0127874435857,-0.00397013546899,-1.67457568645,-0.0337638482451,-0.0169470794499,-0.0299908034503,0.0411566346884,0.253896087408,-9.65464687347,0.0,-0.00153846165631,-1.689011693,0.0,0.0411566346884,0.253896087408,-9.65464687347,-0.0505135059357,-0.0279368720949,-0.0290517695248,-0.0414975658059,0.170145705342,0.411996394396,1013.11999512,1.08219325542,31.1599998474,0.0,0.0,0.0,0.0,-0.305630683899,0.0,0.0,-0.0178798530251,0.0,0.0,0.0,0,3,1,,,,,,,,,,,,,,,,-0.00393695617095,0.00378385582007,0.00233090715483,0.0,0,2,1.0,0,1,0.0,0.0025641026441,0.0,0.0198019798845,1.0,0.937343358994,-0.998161792755,-2.47037157179e+14,7,10.0,10.0,10.0,10.0,0.0,0.0,0.0,0.0,,,-0.0640481263399,0.0121595049277,-0.0144514236599,,,,,,,,,,,,,,,,,,,,,,,,,,,,,,,,,,,,,,,,11.7333335876,11.8147315979,-1.0,-1.0,,,,,,,,,,,86548151,PX4FMU_V1,unknown_git_version,test,305419904.0,,,,,,,,,,,,,,
0.0126541582868,-0.00405065715313,-1.67626523972,0.0254983790219,0.0132571030408,0.0418785698712,-0.194560617208,-0.0279921237379,-9.77656745911,0.0,-0.00153846165631,-1.689011693,0.0,-0.194560617208,-0.0279921237379,-9.77656745911,0.0535615161061,0.0318155139685,0.0656485259533,-0.0231499485672,0.131030678749,0.403985440731,1013.10998535,1.16544353962,31.1599998474,0.0,0.0,0.0,0.0,-0.303261369467,0.0,0.0,-0.0169340446591,0.0,0.0,0.0,0,3,1,,,,,,,,,,,,,,,,-0.0115527203307,-9.03714753804e-05,-0.00819613039494,0.0,0,2,1.0,0,1,0.0,0.0025641026441,0.0,0.0222772285342,0.99816006422,0.937343358994,-0.998161792755,-2.47037157179e+14,7,10.0,10.0,10.0,10.0,0.0,0.0,0.0,0.0,,,-0.0633687004447,0.0125619377941,-0.0127622960135,,,,,,,,,,,,,,,,,,,,,,,,,,,,,,,,,,,,,,,,11.7333335876,11.8145694733,-1.0,-1.0,,,,,,,,,,,86569022,PX4FMU_V1,unknown_git_version,test,305419904.0,,,,,,,,,,,,,,
0.013018370606,-0.00390560412779,-1.67546117306,-0.016196552664,-0.00744452653453,-0.0251541659236,0.0981151759624,-0.333848357201,-9.72273635864,0.0,-0.00153846165631,-1.689011693,0.0,0.0981151759624,-0.333848357201,-9.72273635864,-0.0549274198711,-0.0272032879293,-0.0551543533802,0.00987573340535,0.124372787774,0.394194245338,1013.09997559,1.24869441986,31.1599998474,0.0,0.0,0.0,0.0,-0.302407681942,0.0,0.0,-0.0167995169759,0.0,0.0,0.0,0,3,1,,,,,,,,,,,,,,,,-0.00636992324144,0.0025065660011,0.00173824862577,0.0,0,2,1.0,0,1,0.0,0.0025641026441,0.0,0.0222772285342,0.99816006422,0.937343358994,-0.998161792755,-2.47037157179e+14,7,10.0,10.0,10.0,10.0,0.0,0.0,0.0,0.0,,,-0.0651959627867,0.0118367513642,-0.0135658420622,,,,,,,,,,,,,,,,,,,,,,,,,,,,,,,,,,,,,,,,11.7249526978,11.8144798279,-1.0,-1.0,,,,,,,,,,,86590047,PX4FMU_V1,unknown_git_version,test,305419904.0,,,,,,,,,,,,,,
0.012608111836,-0.00406226143241,-1.67521584034,0.0229914151132,0.0110075911507,0.0388212576509,-0.181948184967,-0.166534766555,-9.73223304749,0.0,0.0,-1.689011693,0.0,-0.181948184967,-0.166534766555,-9.73223304749,0.0505977757275,0.0280242208391,0.0654364153743,0.0117105003446,0.165152296424,0.403095304966,1013.07995605,1.41519832611,31.1499996185,0.0,0.0,0.0,0.0,-0.301025867462,0.0,0.0,-0.0163217633963,0.0,0.0,0.0,0,3,1,,,,,,,,,,,,,,,,-0.0111841112375,0.00120955298189,-0.00789640378207,0.0,0,2,1.0,0,1,0.0,-0.0,0.0,0.0198019798845,1.0,0.93483710289,-0.996323525906,-2.47037157179e+14,7,10.0,10.0,10.0,10.0,0.0,0.0,0.0,0.0,,,-0.0630402192473,0.0203118454665,-0.0138214314356,,,,,,,,,,,,,,,,,,,,,,,,,,,,,,,,,,,,,,,,11.7333335876,11.8143177032,-1.0,-1.0,,,,,,,,,,,86612582,PX4FMU_V1,unknown_git_version,test,305419904.0,,,,,,,,,,,,,,
0.0129773635417,-0.00393634289503,-1.67660224438,-0.0095370542258,-0.00432570325211,-0.0218249224126,0.049068775028,-0.263089030981,-9.70224952698,0.0,-0.00153846165631,-1.689011693,0.0,0.049068775028,-0.263089030981,-9.70224952698,-0.0428377836943,-0.0227201879025,-0.0532341301441,-0.017645675689,0.116882666945,0.405765652657,1013.08996582,1.33194601536,31.1499996185,0.0,0.0,0.0,0.0,-0.301526248455,0.0,0.0,-0.0167330186814,0.0,0.0,0.0,0,3,1,,,,,,,,,,,,,,,,-0.00720786349848,0.00212108460255,0.0014099967666,0.0,0,2,1.0,0,1,0.0,0.0025641026441,0.0,0.0198019798845,1.0,0.937343358994,-0.998161792755,-2.47037157179e+14,7,10.0,10.0,10.0,10.0,0.0,0.0,0.0,0.0,,,-0.0649821609259,0.011990332976,-0.0124249439687,,,,,,,,,,,,,,,,,,,,,,,,,,,,,,,,,,,,,,,,11.7249526978,11.8141384125,-1.0,-1.0,,,,,,,,,,,86633293,PX4FMU_V1,unknown_git_version,test,305419904.0,,,,,,,,,,,,,,
0.0125225679949,-0.00409714691341,-1.6761046648,0.0066964593716,0.00220876699314,0.0228167101741,-0.21767154336,0.195343092084,-9.70769500732,0.0,-0.00153846165631,-1.689011693,0.0,-0.21767154336,0.195343092084,-9.70769500732,0.0418607480824,0.0193261168897,0.0585774481297,-0.000215443928028,0.170977935195,0.411106288433,1013.10998535,1.16544353962,31.1499996185,0.0,0.0,0.0,0.0,-0.301537692547,0.0,0.0,-0.0167930386961,0.0,0.0,0.0,0,3,1,,,,,,,,,,,,,,,,-0.00902309827507,0.00137613259722,-0.0053609572351,0.0,0,2,1.0,0,1,0.0,0.0025641026441,0.0,0.0222772285342,0.99816006422,0.937343358994,-0.998161792755,-2.47037157179e+14,7,10.0,10.0,10.0,10.0,0.0,0.0,0.0,0.0,,,-0.0627119913697,0.012794402428,-0.0129230003804,,,,,,,,,,,,,,,,,,,,,,,,,,,,,,,,,,,,,,,,11.7417144775,11.8139848709,-1.0,-1.0,,,,,,,,,,,86654513,PX4FMU_V1,unknown_git_version,test,305419904.0,,,,,,,,,,,,,,
0.0129839116707,-0.00394206121564,-1.67560660839,-0.0131329875439,-0.00699430797249,-0.021581267938,-0.0412840209901,-0.263471692801,-9.71802997589,0.0,-0.00153846165631,-1.689011693,0.0,-0.0412840209901,-0.263471692801,-9.71802997589,-0.0437331423163,-0.0239424929023,-0.0514529831707,-0.0268194694072,0.116050444543,0.403095304966,1013.04998779,1.66495919228,31.1499996185,0.0,0.0,0.0,0.0,-0.301347315311,0.0,0.0,-0.0168700627983,0.0,0.0,0.0,0,3,1,,,,,,,,,,,,,,,,-0.00674564158544,0.002471732907,0.00122409430332,0.0,0,2,1.0,0,1,0.0,0.0025641026441,0.0,0.0198019798845,1.0,0.937343358994,-0.998161792755,-2.47037157179e+14,7,10.0,10.0,10.0,10.0,0.0,0.0,0.0,0.0,,,-0.0650225430727,0.0120190232992,-0.0134206395596,,,,,,,,,,,,,,,,,,,,,,,,,,,,,,,,,,,,,,,,11.7333335876,11.8138160706,-1.0,-1.0,,,,,,,,,,,86676533,PX4FMU_V1,unknown_git_version,test,305419904.0,,,,,,,,,,,,,,
0.012541834265,-0.00408220244572,-1.67506563663,0.00707793468609,0.00287516671233,0.0173721760511,-0.10805208236,0.185656964779,-9.75869750977,0.0,-0.00153846165631,-1.689011693,0.0,-0.10805208236,0.185656964779,-9.75869750977,0.0400220304728,0.0185407288373,0.0517939664423,0.00437146006152,0.190119341016,0.403985440731,1013.10998535,1.16544353962,31.1499996185,0.0,0.0,0.0,0.0,-0.304730057716,0.0,0.0,-0.0183901768178,0.0,0.0,0.0,0,3,1,,,,,,,,,,,,,,,,-0.0090862493962,0.00127979938406,-0.00470011821017,0.0,0,2,1.0,0,1,0.0,0.0025641026441,0.0,0.0222772285342,0.99816006422,0.937343358994,-0.998161792755,-2.47037157179e+14,7,10.0,10.0,10.0,10.0,0.0,0.0,0.0,0.0,,,-0.0628162994981,0.012719778344,-0.0139619456604,,,,,,,,,,,,,,,,,,,,,,,,,,,,,,,,,,,,,,,,11.7417144775,11.8137435913,-1.0,-1.0,,,,,,,,,,,86697780,PX4FMU_V1,unknown_git_version,test,305419904.0,,,,,,,,,,,,,,
0.0130900368094,-0.00390673568472,-1.67437708378,0.00684439297765,0.00283279456198,0.00397391803563,-0.0613462366164,-0.589228272438,-9.75412368774,0.0,-0.00153846165631,-1.689011693,0.0,-0.0613462366164,-0.589228272438,-9.75412368774,-0.0233952589333,-0.0118094254285,-0.030374456197,-0.01122400444,0.171810179949,0.410216152668,1013.09997559,1.24869441986,31.1499996185,0.0,0.0,0.0,0.0,-0.303893208504,0.0,0.0,-0.0180752873421,0.0,0.0,0.0,0,3,1,,,,,,,,,,,,,,,,-0.00941291358322,0.00117126572877,-0.00279359892011,0.0,0,2,1.0,0,1,0.0,0.0025641026441,0.0,0.0222772285342,0.99816006422,0.937343358994,-0.998161792755,-2.47037157179e+14,7,10.0,10.0,10.0,10.0,0.0,0.0,0.0,0.0,,,-0.0655626356602,0.0118425311521,-0.0146500756964,,,,,,,,,,,,,,,,,,,,,,,,,,,,,,,,,,,,,,,,11.7333335876,11.813574791,-1.0,-1.0,,,,,,,,,,,86718936,PX4FMU_V1,unknown_git_version,test,305419904.0,,,,,,,,,,,,,,
0.0125388549641,-0.0040811765939,-1.67545950413,0.00395244779065,0.000654442643281,0.00908268429339,-0.123910427094,0.177103504539,-9.78499889374,0.0,0.0,-1.689011693,0.0,-0.123910427094,0.177103504539,-9.78499889374,0.0361125320196,0.0141727216542,0.044435068965,-0.0304889902472,0.155165478587,0.420897454023,1013.07000732,1.49845123291,31.1499996185,0.0,0.0,0.0,0.0,-0.304724305868,0.0,0.0,-0.0183902420104,0.0,0.0,0.0,0,3,1,,,,,,,,,,,,,,,,-0.00866402871907,0.00256775622256,-0.00339908222668,0.0,0,2,1.0,0,1,0.0,-0.0,0.0,0.0198019798845,0.99816006422,0.937343358994,-0.998161792755,-2.47037157179e+14,7,10.0,10.0,10.0,10.0,0.0,0.0,0.0,0.0,,,-0.0626939237118,0.0204064138234,-0.013577863574,,,,,,,,,,,,,,,,,,,,,,,,,,,,,,,,,,,,,,,,11.7333335876,11.8134145737,-1.0,-1.0,,,,,,,,,,,86740685,PX4FMU_V1,unknown_git_version,test,305419904.0,,,,,,,,,,,,,,
0.0130830146372,-0.00388956349343,-1.6771607399,0.00973347108811,0.00354309473187,0.0100996848196,-0.0696456879377,-0.491661548615,-9.65693187714,0.0,0.0,-1.689011693,0.0,-0.0696456879377,-0.491661548615,-9.65693187714,-0.0172579064965,-0.0125479605049,-0.0320495776832,-0.0414975658059,0.131862893701,0.410216152668,1013.14996338,0.832446336746,31.1499996185,0.0,0.0,0.0,0.0,-0.304406493902,0.0,0.0,-0.0183980613947,0.0,0.0,0.0,0,3,1,,,,,,,,,,,,,,,,-0.00976926926523,0.00206768675707,-0.00329641718417,0.0,0,2,1.0,0,1,0.0,-0.0,0.0,0.0198019798845,0.99816006422,0.937343358994,-0.998161792755,-2.47037157179e+14,7,10.0,10.0,10.0,10.0,0.0,0.0,0.0,0.0,,,-0.0654147565365,0.019448377192,-0.0118764284998,,,,,,,,,,,,,,,,,,,,,,,,,,,,,,,,,,,,,,,,11.7249526978,11.8132371902,-1.0,-1.0,,,,,,,,,,,86761266,PX4FMU_V1,unknown_git_version,test,305419904.0,,,,,,,,,,,,,,
0.0124868750572,-0.00407935632393,-1.6775649786,-0.0182149577886,-0.00673011364415,-0.0121178571135,-0.0704869702458,0.669427275658,-9.77857017517,0.0,0.0,-1.689011693,0.0,-0.0704869702458,0.669427275658,-9.77857017517,0.00501664960757,0.00207178853452,0.01730042696,-0.0332411415875,0.139353007078,0.403095304966,1013.08996582,1.33194601536,31.1499996185,0.0,0.0,0.0,0.0,-0.30306610465,0.0,0.0,-0.0176459457725,0.0,0.0,0.0,0,3,1,,,,,,,,,,,,,,,,-0.00574847962707,0.00352656468749,9.68572276179e-05,0.0,0,2,1.0,0,1,0.0,-0.0,0.0,0.0198019798845,1.0,0.937343358994,-0.998161792755,-2.47037157179e+14,7,10.0,10.0,10.0,10.0,0.0,0.0,0.0,0.0,,,-0.0624340325594,0.0203973092139,-0.0114721423015,,,,,,,,,,,,,,,,,,,,,,,,,,,,,,,,,,,,,,,,11.7333335876,11.8131570816,-1.0,-1.0,,,,,,,,,,,86782554,PX4FMU_V1,unknown_git_version,test,305419904.0,,,,,,,,,,,,,,
0.0130679262802,-0.00386916426942,-1.67764723301,0.0115474490449,0.00589470658451,0.0172065403312,0.00884300284088,-0.381911933422,-9.66921234131,0.0,-0.00153846165631,-1.689011693,0.0,0.00884300284088,-0.381911933422,-9.66921234131,-0.0136517863721,-0.00839500315487,-0.0145397773013,-0.0497539751232,0.146010890603,0.419117242098,1013.13000488,0.998943567276,31.1399993896,0.0,0.0,0.0,0.0,-0.302744418383,0.0,0.0,-0.0176689419895,0.0,0.0,0.0,0,3,1,,,,,,,,,,,,,,,,-0.0100066708401,0.000748752790969,-0.00428792927414,0.0,0,2,1.0,0,1,0.0,0.0025641026441,0.0,0.0198019798845,1.0,0.937343358994,-0.998161792755,-2.47037157179e+14,7,10.0,10.0,10.0,10.0,0.0,0.0,0.0,0.0,,,-0.0654269456863,0.011654343456,-0.0113796535879,,,,,,,,,,,,,,,,,,,,,,,,,,,,,,,,,,,,,,,,11.7249526978,11.8129816055,-1.0,-1.0,,,,,,,,,,,86804945,PX4FMU_V1,unknown_git_version,test,305419904.0,,,,,,,,,,,,,,
0.0125405620784,-0.00410266406834,-1.67422187328,-0.0203553289175,-0.00798283983022,-0.016580440104,-0.067415907979,0.545653045177,-9.81161308289,0.0,-0.00153846165631,-1.689011693,0.0,-0.067415907979,0.545653045177,-9.81161308289,-0.00365414982662,0.00109898950905,0.00877272151411,0.0117105003446,0.165984541178,0.38440310955,1013.09997559,1.24869441986,31.1399993896,0.0,0.0,0.0,0.0,-0.301403284073,0.0,0.0,-0.0169601980597,0.0,0.0,0.0,0,3,1,,,,,,,,,,,,,,,,-0.00551994331181,0.00270465342328,0.000266201008344,0.0,0,2,1.0,0,1,0.0,0.0025641026441,0.0,0.0222772285342,0.99816006422,0.937343358994,-0.998161792755,-2.47037157179e+14,7,10.0,10.0,10.0,10.0,0.0,0.0,0.0,0.0,,,-0.0628164336085,0.0128221865743,-0.0148057667539,,,,,,,,,,,,,,,,,,,,,,,,,,,,,,,,,,,,,,,,11.7417144775,11.8128223419,-1.0,-1.0,,,,,,,,,,,86825746,PX4FMU_V1,unknown_git_version,test,305419904.0,,,,,,,,,,,,,,
0.0130211515352,-0.00390570936725,-1.67597651482,0.0268509406596,0.0135966362432,0.0370573587716,-0.0860148370266,-0.641858756542,-9.6093416214,0.0,0.0,-1.689011693,0.0,-0.0860148370266,-0.641858756542,-9.6093416214,0.0159949101508,0.0100135756657,0.0270859487355,-0.0369106605649,0.16681677103,0.405765652657,1013.08996582,1.33194601536,31.1399993896,0.0,0.0,0.0,0.0,-0.301403790712,0.0,0.0,-0.0172403119504,0.0,0.0,0.0,0,3,1,,,,,,,,,,,,,,,,-0.0119543252513,0.000771219842136,-0.00751769077033,0.0,0,2,1.0,0,1,0.0,-0.0,0.0,0.0198019798845,0.99816006422,0.937343358994,-0.998161792755,-2.47037157179e+14,7,10.0,10.0,10.0,10.0,0.0,0.0,0.0,0.0,,,-0.0651054158807,0.0195290967822,-0.0130605762824,,,,,,,,,,,,,,,,,,,,,,,,,,,,,,,,,,,,,,,,11.7333335876,11.812664032,-1.0,-1.0,,,,,,,,,,,86846957,PX4FMU_V1,unknown_git_version,test,305419904.0,,,,,,,,,,,,,,
0.0125520331785,-0.00412093289196,-1.67467451096,-0.0228456798941,-0.00877333804965,-0.0224674008787,-0.082955814898,0.628751516342,-9.75391674042,0.0,-0.00153846165631,-1.689011693,0.0,-0.082955814898,0.628751516342,-9.75391674042,-0.00920664612204,0.000663222395815,5.689333193e-06,0.0135452533141,0.13685631752,0.395974457264,1013.08996582,1.33194601536,31.1399993896,0.0,0.0,0.0,0.0,-0.300247311592,0.0,0.0,-0.016780955717,0.0,0.0,0.0,0,3,1,,,,,,,,,,,,,,,,-0.00520320283249,0.00281928642653,0.0012171191629,0.0,0,2,1.0,0,1,0.0,0.0025641026441,0.0,0.0222772285342,0.99816006422,0.937343358994,-0.998161792755,-2.47037157179e+14,7,10.0,10.0,10.0,10.0,0.0,0.0,0.0,0.0,,,-0.0628703162074,0.0129134822637,-0.0143532734364,,,,,,,,,,,,,,,,,,,,,,,,,,,,,,,,,,,,,,,,11.7333335876,11.812497139,-1.0,-1.0,,,,,,,,,,,86868850,PX4FMU_V1,unknown_git_version,test,305419904.0,,,,,,,,,,,,,,
0.0129949478433,-0.00389130832627,-1.67612826824,0.0262918490916,0.0129402121529,0.0407736636698,-0.0959714353085,-0.603018283844,-9.64095878601,0.0,-0.00153846165631,-1.689011693,0.0,-0.0959714353085,-0.603018283844,-9.64095878601,0.0157646872103,0.00985754653811,0.0343339890242,-0.0158109087497,0.146010890603,0.413776606321,1013.05999756,1.58170485497,31.1399993896,0.0,0.0,0.0,0.0,-0.302626818419,0.0,0.0,-0.0182170942426,0.0,0.0,0.0,0,3,1,,,,,,,,,,,,,,,,-0.0118775246665,-0.000152751003043,-0.00805083755404,0.0,0,2,1.0,0,1,0.0,0.0025641026441,0.0,0.0222772285342,0.99816006422,0.937343358994,-0.998161792755,-2.47037157179e+14,7,10.0,10.0,10.0,10.0,0.0,0.0,0.0,0.0,,,-0.0650737285614,0.01176520437,-0.0128985857591,,,,,,,,,,,,,,,,,,,,,,,,,,,,,,,,,,,,,,,,11.7333335876,11.812417984,-1.0,-1.0,,,,,,,,,,,86889568,PX4FMU_V1,unknown_git_version,test,305419904.0,,,,,,,,,,,,,,
