TIME_StartTime,IMU_AccX,IMU_AccY,IMU_AccZ,IMU_GyroX,IMU_GyroY,IMU_GyroZ,IMU_MagX,IMU_MagY,IMU_MagZ,LPOS_X,LPOS_Y,LPOS_Z,LPOS_VX,LPOS_VY,LPOS_VZ,LPOS_RefLat,LPOS_RefLon,LPOS_RefAlt,LPOS_XYFlags,LPOS_ZFlags,LPOS_Landed,RC_Ch0,RC_Ch1,RC_Ch2,RC_Ch3,RC_Ch4,RC_Ch5,RC_Ch6,RC_Ch7,RC_Count,ATT_Roll,ATT_Pitch,ATT_Yaw,ATT_RollRate,ATT_PitchRate,ATT_YawRate,ATT_GX,ATT_GY,ATT_GZ
75980975,-0.114827871323,-0.0466359704733,-9.71858119965,0.000535828585271,0.000307693553623,0.00286656152457,-0.0827796682715,0.103566922247,0.38440310955,0.0,0.0,-0.33040151,0.0,0.0,-0.00699746794999,0.0,0.0,0.0,0,3,1,0.0,0.0025641026441,0.0,1.0,-0.99816006422,0.93483710289,-0.998161792755,1.361144426e+14,7,0.0055311601609,-0.00671111792326,-2.27297854424,0.000542292837054,0.000220494068344,0.0021423320286,-0.114827871323,-0.0466359704733,-9.71858119965
76001936,-0.0822542384267,-0.0468476526439,-9.68999862671,-0.000159480390721,0.00187370204367,0.00152479531243,-0.0864492058754,0.102734684944,0.38440310955,0.0,0.0,-0.330481827259,0.0,0.0,-0.00704165408388,0.0,0.0,0.0,0,3,1,0.0,0.0025641026441,0.0,1.0,-1.0,0.937343358994,-0.998161792755,1.361144426e+14,7,0.00553024280816,-0.0067042526789,-2.27328133583,-1.37806027851e-05,0.00146675284486,0.00190007966012,-0.0822542384267,-0.0468476526439,-9.68999862671
76024225,-0.0839267596602,-0.044825669378,-9.70124435425,0.000420936266892,0.000881256477442,0.00171091558877,-0.0846144407988,0.101902455091,0.38440310955,0.0,0.0,-0.331200093031,0.0,0.0,-0.00732718408108,0.0,0.0,0.0,0,3,1,0.0,0.0025641026441,0.0,1.0,-1.0,0.937343358994,-0.998161792755,1.361144426e+14,7,0.00552652822807,-0.00668772822246,-2.27365708351,0.000276185543044,0.00106300355401,0.00139387103263,-0.0839267596602,-0.044825669378,-9.70124435425
76045293,-0.0919458791614,-0.0422882884741,-9.71178436279,0.000889973714948,0.00125809526071,0.00239971652627,-0.0855318233371,0.0994057431817,0.38440310955,0.0,0.0,-0.332929462194,0.0,0.0,-0.00808683224022,0.0,0.0,0.0,0,3,1,0.0,0.0025641026441,0.0,1.0,-1.0,0.937343358994,-0.998161792755,1.361144426e+14,7,0.005532998126,-0.00668093189597,-2.27447128296,0.000672165595461,0.000957190582994,0.00218431092799,-0.0919458791614,-0.0422882884741,-9.71178436279
76066555,-0.082818210125,-0.03728614375,-9.73122215271,0.000185061944649,0.000656844116747,0.000809844234027,-0.0864492058754,0.0994057431817,0.385293215513,0.0,0.0,-0.332625001669,0.0,0.0,-0.00789901986718,0.0,0.0,0.0,0,3,1,0.0,0.0025641026441,0.0,1.0,-1.0,0.937343358994,-0.998161792755,1.361144426e+14,7,0.00553515320644,-0.00667363079265,-2.27487301826,0.00044532850734,0.000771324383095,0.00155498017557,-0.082818210125,-0.03728614375,-9.73122215271
76088604,-0.0823718085885,-0.0458257943392,-9.73090744019,0.000773883366492,0.000796273758169,0.00128616939764,-0.0846144407988,0.0902511626482,0.375502020121,0.0,0.0,-0.3313344419,0.0,0.0,-0.00730480067432,0.0,0.0,0.0,0,3,1,0.0,0.0025641026441,0.0,1.0,-1.0,0.93483710289,-0.996323525906,1.361144426e+14,7,0.00554335489869,-0.00666634785011,-2.27617645264,0.000580697669648,0.000703499186784,0.000713786925189,-0.0823718085885,-0.0458257943392,-9.73090744019
76109823,-0.0736546441913,-0.0403630584478,-9.73291969299,0.00130526011344,0.000407656974858,0.00185992592014,-0.0836970582604,0.101902455091,0.38440310955,0.0,0.0,-0.327381908894,0.0,0.0,-0.00549702020362,0.0,0.0,0.0,0,3,1,0.0,0.0025641026441,0.0,1.0,-1.0,0.937343358994,-0.998161792755,1.361144426e+14,7,0.00556136155501,-0.00666453503072,-2.27625226974,0.00133444531821,0.000395648850827,0.00146615505219,-0.0736546441913,-0.0403630584478,-9.73291969299
76132390,-0.0764247328043,-0.045673340559,-9.72269916534,0.000278125982732,9.3939670478e-05,0.0022908418905,-0.0864492058754,0.103566922247,0.386183291674,0.0,0.0,-0.327105939388,0.0,0.0,-0.00568636506796,0.0,0.0,0.0,0,3,1,0.0,0.0025641026441,0.0,1.0,-1.0,0.93483710289,-0.996323525906,1.361144426e+14,7,0.00556913390756,-0.00666098482907,-2.27627468109,0.000454978406196,0.000247524556471,0.00226356531493,-0.0764247328043,-0.045673340559,-9.72269916534
76153050,-0.0856313705444,-0.0491338633001,-9.71085453033,0.00023403087107,0.000195320360945,0.00210734619759,-0.0864492058754,0.0927478671074,0.383513003588,0.0,0.0,-0.32551074028,0.0,0.0,-0.005196117796,0.0,0.0,0.0,0,3,1,0.0,0.0025641026441,0.0,1.0,-1.0,0.93483710289,-0.996323525906,1.361144426e+14,7,0.00557631533593,-0.00666952086613,-2.27705359459,0.000407156185247,-1.66472873389e-05,0.00233519426547,-0.0856313705444,-0.0491338633001,-9.71085453033
76174286,-0.0739219114184,-0.0447674319148,-9.72559165955,0.00150997110177,0.00100904097781,0.0017194316024,-0.0846144407988,0.0910833999515,0.382622867823,0.0,0.0,-0.325663328171,0.0,0.0,-0.00539777474478,0.0,0.0,0.0,0,3,1,0.0,-0.0,0.0,1.0,-1.0,0.937343358994,-0.998161792755,1.361144426e+14,7,0.00558939669281,-0.00667049223557,-2.27865076065,0.00105440139305,0.000613982789218,0.00180700770579,-0.0739219114184,-0.0447674319148,-9.72559165955
76196306,-0.0968678221107,-0.0419767722487,-9.7111749649,0.000981220277026,0.000211201244383,0.00242736120708,-0.0836970582604,0.103566922247,0.377282261848,0.0,0.0,-0.327763497829,0.0,0.0,-0.00669917138293,0.0,0.0,0.0,0,3,1,0.0,0.0025641026441,0.0,1.0,-1.0,0.937343358994,-0.998161792755,1.361144426e+14,7,0.00560340890661,-0.00666451780125,-2.27839446068,0.00106107851025,0.000506007636432,0.00233820453286,-0.0968678221107,-0.0419767722487,-9.7111749649
76217577,-0.0872239097953,-0.0489436388016,-9.71371555328,-1.94799522433e-05,0.000124901242089,0.00119443726726,-0.0827796682715,0.0935801044106,0.38440310955,0.0,0.0,-0.327182382345,0.0,0.0,-0.00651034805924,0.0,0.0,0.0,0,3,1,0.0,0.0025641026441,0.0,1.0,-1.0,0.937343358994,-0.998161792755,1.361144426e+14,7,0.00561072630808,-0.0066744806245,-2.27929830551,0.000340127997333,0.00013230642071,0.00157979351934,-0.0872239097953,-0.0489436388016,-9.71371555328
76238775,-0.0773122757673,-0.0396094918251,-9.726978302,0.000552545476239,0.000972491980065,0.00161548506003,-0.0855318233371,0.105231389403,0.387073397636,0.0,0.0,-0.329781234264,0.0,0.0,-0.00792831368744,0.0,0.0,0.0,0,3,1,0.0,0.0025641026441,0.0,1.0,-1.0,0.937343358994,-0.998161792755,1.361144426e+14,7,0.00561213260517,-0.00667858496308,-2.27980971336,0.000200476555619,0.000355889525963,0.0016205747379,-0.0773122757673,-0.0396094918251,-9.726978302
76260927,-0.0884909331799,-0.0457720793784,-9.71076965332,0.000185709635844,-0.000117820593005,0.00137954216916,-0.0873665586114,0.0977412760258,0.382622867823,0.0,0.0,-0.327522069216,0.0,0.0,-0.00696363300085,0.0,0.0,0.0,0,3,1,0.0,0.0025641026441,0.0,1.0,-1.0,0.937343358994,-0.998161792755,1.361144426e+14,7,0.00562617788091,-0.00668028229848,-2.28033494949,0.000572292366996,0.000108396852738,0.00131139322184,-0.0884909331799,-0.0457720793784,-9.71076965332
76282221,-0.082197509706,-0.0310868993402,-9.68163871765,-5.37744272151e-05,0.000925679050852,0.00144121947233,-0.0818622857332,0.103566922247,0.378172367811,0.0,0.0,-0.326053500175,0.0,0.0,-0.00627613812685,0.0,0.0,0.0,0,3,1,0.0,0.0025641026441,0.0,1.0,-1.0,0.937343358994,-0.998161792755,1.361144426e+14,7,0.00562063651159,-0.00667812395841,-2.28013277054,0.000102108017018,0.000809877237771,0.00141681951936,-0.082197509706,-0.0310868993402,-9.68163871765
76305282,-0.0706281810999,-0.0578846111894,-9.73882293701,-0.000118240292068,0.000686476414558,0.00158639624715,-0.0836970582604,0.101902455091,0.38440310955,0.0,0.0,-0.327148526907,0.0,0.0,-0.00676908716559,0.0,0.0,0.0,0,3,1,0.0,0.0025641026441,0.0,1.0,-1.0,0.93483710289,-0.996323525906,1.361144426e+14,7,0.00561426579952,-0.00667160004377,-2.28017878532,-0.00015350340982,0.000691918190569,0.00176236149855,-0.0706281810999,-0.0578846111894,-9.73882293701
76326703,-0.0621855482459,-0.115049175918,-9.7012014389,1.51871463459e-05,0.00118899426889,0.00291983433999,-0.0855318233371,0.102734684944,0.383513003588,0.0,0.0,-0.325728684664,0.0,0.0,-0.0061421864666,0.0,0.0,0.0,0,3,1,0.0,-0.0,0.0,1.0,-1.0,0.937343358994,-0.998161792755,1.361144426e+14,7,0.00561809726059,-0.00665359478444,-2.28038740158,-4.76192544738e-05,0.00114805391058,0.00254973932169,-0.0621855482459,-0.115049175918,-9.7012014389
76348905,0.072966016829,0.103119686246,-10.056517601,0.00232407380827,0.0120736993849,-0.0244651231915,-0.0855318233371,0.111057035625,0.457391798496,0.0,0.0,-0.325818449259,0.0,0.0,-0.00626121414825,0.0,0.0,0.0,0,3,1,0.0,-0.0,0.0,1.0,-1.0,0.937343358994,-0.998161792755,1.361144426e+14,7,0.00554366316646,-0.00668960111216,-2.28070902824,-0.0016085394891,0.00432663271204,-0.0130968298763,0.072966016829,0.103119686246,-10.056517601
76369952,-0.300715535879,-0.455236315727,-9.73826122284,-0.012895822525,-0.0201713051647,0.0451131127775,-0.0506713576615,0.168481230736,0.434249043465,0.0,0.0,-0.325581789017,0.0,0.0,-0.00614179717377,0.0,0.0,0.0,0,3,1,0.0,0.0025641026441,0.0,1.0,-0.99816006422,0.93483710289,-0.998161792755,1.361144426e+14,7,0.00571001367643,-0.00671208510175,-2.26822829247,-0.000918123056181,-0.010227211751,0.0555069558322,-0.300715535879,-0.455236315727,-9.73826122284
76391204,0.600345849991,-0.171865299344,-9.71154117584,-0.022548597306,-0.00322284013964,-0.0551855452359,-0.0433323159814,0.142681956291,0.452941298485,0.0,0.0,-0.326127260923,0.0,0.0,-0.00671066856012,0.0,0.0,0.0,0,3,1,0.0,0.0025641026441,0.0,1.0,-1.0,0.937343358994,-0.998161792755,1.361144426e+14,7,0.00532148592174,-0.00664638681337,-2.25933027267,-0.0197724439204,0.00200819200836,-0.0900110378861,0.600345849991,-0.171865299344,-9.71154117584
76412992,-0.196390926838,0.900922298431,-10.0156288147,-0.0120606655255,-0.00732970563695,-0.0149869946763,-0.0277368538082,0.144346430898,0.464512676001,0.0,0.0,-0.327228784561,0.0,0.0,-0.00702187465504,0.0,0.0,0.0,0,3,1,0.0,-0.0,0.0,1.0,-1.0,0.937343358994,-0.998161792755,1.361144426e+14,7,0.00434990087524,-0.00771494349465,-2.2492890358,-0.0355027131736,-0.0388070568442,0.0324848294258,-0.196390926838,0.900922298431,-10.0156288147
76433498,0.477564513683,0.260786980391,-9.33539485931,0.0597661137581,0.0418893247843,0.0378410294652,-0.109383709729,0.159326657653,0.450270950794,0.0,0.0,-0.327831506729,0.0,0.0,-0.00757690705359,0.0,0.0,0.0,0,3,1,0.0,0.0025641026441,0.0,1.0,-1.0,0.937343358994,-0.998161792755,1.361144426e+14,7,0.00503874756396,-0.00697037903592,-2.24823451042,0.0583463273942,0.0523658357561,0.00824587140232,0.477564513683,0.260786980391,-9.33539485931
76454832,-0.157054573298,0.137758955359,-9.95823860168,-0.0430488437414,-0.0170277003199,-0.0202313233167,0.0199669245631,0.161823362112,0.437809497118,0.0,0.0,-0.330288648605,0.0,0.0,-0.00913036614656,0.0,0.0,0.0,0,3,1,0.0,0.0025641026441,0.0,1.0,-1.0,0.937343358994,-0.998161792755,1.361144426e+14,7,0.00545914052054,-0.0068477243185,-2.23480463028,-0.00926913972944,-0.00603032670915,-0.00579130696133,-0.157054573298,0.137758955359,-9.95823860168
76477059,-0.316266477108,-0.0467039495707,-9.73052597046,-0.00781054608524,-0.0240046214312,0.00721882423386,-0.0864492058754,0.12603725493,0.449380844831,0.0,0.0,-0.330752432346,0.0,0.0,-0.00968952197582,0.0,0.0,0.0,0,3,1,0.0,-0.0,0.0,1.0,-1.0,0.937343358994,-0.998161792755,1.361144426e+14,7,0.00504939304665,-0.00712734740227,-2.23454999924,-0.0117824412882,-0.0196885708719,0.00629224069417,-0.316266477108,-0.0467039495707,-9.73052597046
76497985,0.147383272648,0.185881003737,-9.56629753113,0.0318772830069,0.0350485369563,0.00274393474683,-0.102044671774,0.121043846011,0.464512676001,0.0,0.0,-0.330631315708,0.0,0.0,-0.00967810209841,0.0,0.0,0.0,0,3,1,0.0,0.0025641026441,0.0,1.0,-1.0,0.937343358994,-0.998161792755,1.361144426e+14,7,0.00527875125408,-0.00690734619275,-2.22493433952,0.0245577320457,0.0265577845275,0.00740222865716,0.147383272648,0.185881003737,-9.56629753113
76519225,-0.120533674955,-0.218803137541,-9.94831466675,-0.0382999330759,-0.0326919853687,0.00710831442848,0.00437146006152,0.172642409801,0.438699603081,0.0,0.0,-0.33095896244,0.0,0.0,-0.0101031661034,0.0,0.0,0.0,0,3,1,0.0,-0.0,0.0,1.0,-1.0,0.937343358994,-0.998161792755,1.361144426e+14,7,0.00534974457696,-0.00693938136101,-2.21559524536,-0.0195227265358,-0.0201218016446,0.00539911584929,-0.120533674955,-0.218803137541,-9.94831466675
76541306,0.379065036774,-0.441406667233,-9.69828414917,0.0103315096349,0.00356969120912,0.000379422737751,-0.0148935252801,0.149339839816,0.447600632906,0.0,0.0,-0.330719679594,0.0,0.0,-0.0102617898956,0.0,0.0,0.0,0,3,1,0.0,-0.0,0.0,1.0,-1.0,0.937343358994,-0.998161792755,1.361144426e+14,7,0.00534340925515,-0.00687945913523,-2.20817422867,0.0136280311272,0.0106997238472,-0.00182330480311,0.379065036774,-0.441406667233,-9.69828414917
76562624,-0.339086055756,0.168282389641,-9.70150375366,0.00140589452349,0.0053425966762,-0.00926665775478,-0.0580103993416,0.179300293326,0.439589679241,0.0,0.0,-0.333872318268,0.0,0.0,-0.0119153698906,0.0,0.0,0.0,0,3,1,0.0,0.0025641026441,0.0,1.0,-1.0,0.937343358994,-0.998161792755,1.361144426e+14,7,0.00525563955307,-0.00701193511486,-2.20326685905,-0.00368217332289,-0.00263091409579,-0.0007653394714,-0.339086055756,0.168282389641,-9.70150375366
76583816,-0.0348773337901,-0.160637870431,-9.73634433746,-0.00255115167238,-0.00665720039979,0.00823164358735,-0.0038849641569,0.120211623609,0.46095225215,0.0,0.0,-0.331940680742,0.0,0.0,-0.0110604651272,0.0,0.0,0.0,0,3,1,0.0,0.0025641026441,0.0,1.0,-1.0,0.937343358994,-0.998161792755,1.361144426e+14,7,0.00535875465721,-0.00690745236352,-2.19140958786,0.0026780043263,0.000605043082032,0.00999381486326,-0.0348773337901,-0.160637870431,-9.73634433746
76606283,-0.176239162683,-0.0933856144547,-9.67701530457,0.00663485284895,0.00658765761182,0.035160548985,-0.0203978121281,0.111057035625,0.459172040224,0.0,0.0,-0.331409335136,0.0,0.0,-0.0108621018007,0.0,0.0,0.0,0,3,1,0.0,0.0025641026441,0.0,1.0,-1.0,0.937343358994,-0.998161792755,1.361144426e+14,7,0.00535082118586,-0.00689071137458,-2.18671798706,0.00416218116879,0.00595403416082,0.0149949034676,-0.176239162683,-0.0933856144547,-9.67701530457
76627188,-0.139863416553,-0.0558581911027,-9.8164100647,-0.00234355358407,-0.00195085257292,-0.0127591481432,-0.0781927853823,0.175971344113,0.43602925539,0.0,0.0,-0.332898378372,0.0,0.0,-0.0118626412004,0.0,0.0,0.0,0,3,1,0.0,0.0025641026441,0.0,1.0,-1.0,0.937343358994,-0.998161792755,1.361144426e+14,7,0.00533419661224,-0.0069439006038,-2.17958903313,-0.00266956398264,-0.00289253820665,-0.0123089281842,-0.139863416553,-0.0558581911027,-9.8164100647
76649707,0.0445482246578,-0.0039956625551,-9.71140670776,-0.00116661353968,0.000135743437568,-0.00227391417138,-0.0240673329681,0.114385969937,0.463622540236,0.0,0.0,-0.330202102661,0.0,0.0,-0.0108088683337,0.0,0.0,0.0,0,3,1,0.0,0.0025641026441,0.0,1.0,-1.0,0.937343358994,-0.998161792755,1.361144426e+14,7,0.00535260187462,-0.0068865166977,-2.17293953896,0.00012305880955,0.00186071021017,0.00247867428698,0.0445482246578,-0.0039956625551,-9.71140670776
76670763,-0.385105967522,0.134964630008,-9.71256923676,-0.00847124122083,-0.00331347342581,-0.00653612054884,-0.0855318233371,0.163487836719,0.437809497118,0.0,0.0,-0.329342663288,0.0,0.0,-0.010510363616,0.0,0.0,0.0,0,3,1,0.0,0.0025641026441,0.0,1.0,-1.0,0.937343358994,-0.998161792755,1.361144426e+14,7,0.00528085930273,-0.00699001923203,-2.17164921761,-0.00653283391148,-0.00521905953065,0.000638919940684,-0.385105967522,0.134964630008,-9.71256923676
76691881,-0.0477336347103,0.00393665395677,-9.6205406189,0.0137925902382,0.00570033770055,0.0178183335811,-0.0598451644182,0.117714904249,0.452941298485,0.0,0.0,-0.32740598917,0.0,0.0,-0.00964227318764,0.0,0.0,0.0,0,3,1,0.0,0.0025641026441,0.0,1.0,-1.0,0.937343358994,-0.998161792755,1.361144426e+14,7,0.00533660128713,-0.00687193451449,-2.17037129402,0.00943701528013,0.00633291574195,0.0112033337355,-0.0477336347103,0.00393665395677,-9.6205406189
76713610,-0.0771434828639,-0.0937707573175,-9.67883872986,0.00131108856294,0.00194687047042,0.00513232219964,-0.0836970582604,0.155165478587,0.430688619614,0.0,0.0,-0.326078921556,0.0,0.0,-0.00903614982963,0.0,0.0,0.0,0,3,1,0.0,-0.0,0.0,1.0,-1.0,0.937343358994,-0.998161792755,1.361144426e+14,7,0.00537302484736,-0.00690865796059,-2.16965961456,-0.00185398105532,-0.00124247744679,-0.00256572291255,-0.0771434828639,-0.0937707573175,-9.67883872986
76734418,0.0528496019542,-0.116015300155,-9.77079391479,-0.000325261382386,-0.000924470950849,-0.000827109441161,-0.0414975658059,0.141849726439,0.429798513651,0.0,0.0,-0.328252464533,0.0,0.0,-0.0100871669129,0.0,0.0,0.0,0,3,1,0.0,0.0025641026441,0.0,1.0,-1.0,0.937343358994,-0.998161792755,1.361144426e+14,7,0.0054058865644,-0.00691076740623,-2.16104483604,0.001366954064,0.000192358915228,0.000919982325286,0.0528496019542,-0.116015300155,-9.77079391479
76755429,0.0734727978706,0.018372932449,-9.74037742615,-0.00177315797191,0.000156983791385,-0.00860097911209,-0.0341585092247,0.111057035625,0.438699603081,0.0,0.0,-0.330587118864,0.0,0.0,-0.011195176281,0.0,0.0,0.0,0,3,1,0.0,0.0025641026441,0.0,1.0,-1.0,0.937343358994,-0.998161792755,1.361144426e+14,7,0.00531711895019,-0.00700217066333,-2.15364074707,-0.00397355621681,-0.00286486954428,-0.00176103087142,0.0734727978706,0.018372932449,-9.74037742615
76778356,-0.184047818184,-0.203477889299,-9.77824306488,0.0113106574863,0.00427268398926,-0.000900124141481,-0.00571973156184,0.128533959389,0.443150103092,0.0,0.0,-0.332403302193,0.0,0.0,-0.0121870692819,0.0,0.0,0.0,0,3,1,0.0,-0.0,0.0,0.962871313095,-1.0,0.937343358994,-0.998161792755,1.361144426e+14,7,0.00544725824147,-0.00694589922205,-2.1447365284,0.0111217880622,0.00475181220099,0.00880207307637,-0.184047818184,-0.203477889299,-9.77824306488
76799737,-0.0568026080728,-0.0668884292245,-9.72270965576,-0.00738074723631,-0.00321232015267,0.0269944295287,-0.0763580128551,0.113553732634,0.436919361353,0.0,0.0,-0.330999553204,0.0,0.0,-0.0116038378328,0.0,0.0,0.0,0,3,1,0.0,0.0025641026441,0.0,0.933168292046,-1.0,0.937343358994,-0.998161792755,1.361144426e+14,7,0.00543184252456,-0.0069099906832,-2.14532971382,-0.00523941637948,-0.0012989359675,0.00422670692205,-0.0568026080728,-0.0668884292245,-9.72270965576
76821986,-0.00935536902398,0.246567413211,-9.93155384064,-0.0027713237796,0.00166306924075,-0.022330770269,-0.0103066358715,0.160158902407,0.449380844831,0.0,0.0,-0.331663578749,0.0,0.0,-0.0122193554416,0.0,0.0,0.0,0,3,1,0.0,0.0025641026441,0.0,0.693069279194,-1.0,0.937343358994,-0.998161792755,1.361144426e+14,7,0.00523430807516,-0.00706185912713,-2.140437603,-0.00586189096794,-0.0030133118853,-0.0164577122778,-0.00935536902398,0.246567413211,-9.93155384064
76843007,0.0485356599092,-0.359859138727,-9.78852653503,0.00945355370641,0.00488492147997,0.0265454072505,-0.012141388841,0.117714904249,0.428908407688,0.0,0.0,-0.332339465618,0.0,0.0,-0.0132813341916,0.0,0.0,0.0,0,3,1,0.0,-0.0,0.0,0.094059407711,-1.0,0.937343358994,-0.998161792755,1.361144426e+14,7,0.00542480871081,-0.00691602379084,-2.13035154343,0.0113154286519,0.00702630961314,0.0228753201663,0.0485356599092,-0.359859138727,-9.78852653503
76864247,0.0804610699415,-0.197655960917,-9.83610248566,-0.00850855186582,-0.0046698898077,-0.0184918623418,-0.116722755134,0.130198433995,0.425347983837,0.0,0.0,-0.334532082081,0.0,0.0,-0.0151798455045,0.0,0.0,0.0,0,3,1,0.0,0.0025641026441,0.0,0.0891089141369,-1.0,0.937343358994,-0.998161792755,1.361144426e+14,7,0.00547290872782,-0.00697746919468,-2.13603830338,-0.00406442582607,-0.003427230753,-0.0173378940672,0.0804610699415,-0.197655960917,-9.83610248566
76886233,-0.288038164377,0.263679414988,-9.71602916718,0.000559640931897,-0.00612834375352,-0.00428728479892,-0.0295716207474,0.164320066571,0.412886500359,0.0,0.0,-0.337598085403,0.0,0.0,-0.0176934171468,0.0,0.0,0.0,0,3,1,0.0,0.0025641026441,0.0,0.0618811883032,-1.0,0.93483710289,-0.996323525906,1.361144426e+14,7,0.00519716180861,-0.00712467962876,-2.12812519073,-0.0081852665171,-0.00812655873597,0.0031781126745,-0.288038164377,0.263679414988,-9.71602916718
76907714,0.145105525851,-0.536815404892,-9.76942634583,0.0438000746071,0.0384479016066,0.0192704387009,-0.0203978121281,0.1043991521,0.436919361353,0.0,0.0,-0.33654910326,0.0,0.0,-0.0176883116364,0.0,0.0,0.0,0,3,1,0.0,0.0025641026441,0.0,0.0222772285342,-1.0,0.937343358994,-0.998161792755,1.361144426e+14,7,0.00568744027987,-0.00683157704771,-2.1253221035,0.0393976792693,0.0309584215283,0.0086659155786,0.145105525851,-0.536815404892,-9.76942634583
76930514,-0.655438661575,0.865738213062,-9.94183254242,-0.0327119790018,-0.0420286096632,-0.00918640941381,-0.0570930279791,0.142681956291,0.437809497118,0.0,0.0,-0.337815314531,0.0,0.0,-0.0192417744547,0.0,0.0,0.0,0,3,1,0.0,0.0025641026441,0.0,0.0222772285342,-1.0,0.937343358994,-0.998161792755,1.361144426e+14,7,0.00514083309099,-0.00709546171129,-2.11947321892,-0.043115016073,-0.0383003540337,-0.0132400244474,-0.655438661575,0.865738213062,-9.94183254242
76950979,0.599796533585,-0.36815521121,-10.0250339508,0.0300496574491,0.0417814031243,0.0123989945278,-0.0341585092247,0.141017496586,0.436919361353,0.0,0.0,-0.338086932898,0.0,0.0,-0.0199201013893,0.0,0.0,0.0,0,3,1,0.0,-0.0,0.0,0.00247524748556,-1.0,0.937343358994,-0.998161792755,1.361144426e+14,7,0.00572495255619,-0.0068030548282,-2.11615562439,0.0362831428647,0.0374842137098,0.0298656672239,0.599796533585,-0.36815521121,-10.0250339508
76972338,-0.324814558029,-0.693168580532,-10.1304016113,0.0336651876569,0.0181081146002,0.00415681209415,-0.0552582629025,0.151004299521,0.417337030172,0.0,0.0,-0.342874139547,0.0,0.0,-0.0228371173143,0.0,0.0,0.0,0,3,1,0.0,0.0025641026441,0.0,0.0198019798845,-1.0,0.937343358994,-0.998161792755,1.361144426e+14,7,0.00579208647832,-0.00667595490813,-2.11262249947,0.0189898032695,0.00892374757677,-0.0268343891948,-0.324814558029,-0.693168580532,-10.1304016113
76994844,-0.928106606007,1.96919751167,-9.87503528595,0.0003475274425,-0.0267382115126,-0.0573615841568,-0.0561756454408,0.107728101313,0.420897454023,0.0,0.0,-0.346710503101,0.0,0.0,-0.0252979453653,0.0,0.0,0.0,0,3,1,0.0,-0.0,0.0,0.0198019798845,-1.0,0.937343358994,-0.998161792755,1.361144426e+14,7,0.00505034951493,-0.00701415399089,-2.10721063614,-0.0342119522393,-0.0319623462856,-0.0194771625102,-0.928106606007,1.96919751167,-9.87503528595
77015642,0.328283339739,-0.330953240395,-10.1017723083,-0.0302175693214,0.00539566436782,0.034508254379,-0.0405801795423,0.128533959389,0.391523957253,0.0,0.0,-0.348901093006,0.0,0.0,-0.0266274418682,0.0,0.0,0.0,0,3,1,0.0,0.0025641026441,0.0,0.0222772285342,-1.0,0.937343358994,-0.998161792755,1.361144426e+14,7,0.00605627940968,-0.00661748088896,-2.10139298439,0.0147919589654,0.0201283618808,0.0130054540932,0.328283339739,-0.330953240395,-10.1017723083
77038661,1.06599140167,-2.02411222458,-9.79451560974,-0.0308185480535,-0.0107708089054,0.000677763368003,-0.021315196529,0.098573513329,0.388853609562,0.0,0.0,-0.352389574051,0.0,0.0,-0.0285888910294,0.0,0.0,0.0,0,3,1,0.0,0.0025641026441,0.0,0.0198019798845,-1.0,0.937343358994,-0.998161792755,1.361144426e+14,7,0.00659048045054,-0.00642166333273,-2.09613204002,0.0201667770743,0.00854502432048,-0.00348353479058,1.06599140167,-2.02411222458,-9.79451560974
77060159,-1.36979985237,0.498266518116,-10.0143136978,0.0552827492356,0.0241587851197,-0.0248390622437,-0.0424149334431,0.110224798322,0.376392126083,0.0,0.0,-0.351893812418,0.0,0.0,-0.0280951540917,0.0,0.0,0.0,0,3,1,0.0,0.0025641026441,0.0,0.0198019798845,-1.0,0.937343358994,-0.998161792755,1.361144426e+14,7,0.00543010141701,-0.00724812131375,-2.09460234642,-0.00641914177686,-0.015652179718,-0.00279553793371,-1.36979985237,0.498266518116,-10.0143136978
77082728,-0.737824320793,0.815619587898,-9.31414985657,-0.0331345945597,-0.0404140949249,0.00913824513555,-0.00663710059598,0.126869499683,0.375502020121,0.0,0.0,-0.3555585742,0.0,0.0,-0.0305299423635,0.0,0.0,0.0,0,3,1,0.0,0.0025641026441,0.0,0.0222772285342,-1.0,0.937343358994,-0.998161792755,1.361144426e+14,7,0.00591905973852,-0.00675559276715,-2.08382177353,-0.0162402447313,-0.014046673663,0.0148237980902,-0.737824320793,0.815619587898,-9.31414985657
77103363,0.55887812376,-0.558540701866,-9.67715835571,0.00714867422357,0.025696657598,0.0125477453694,-0.0139761557803,0.0769354104996,0.383513003588,0.0,0.0,-0.356872916222,0.0,0.0,-0.0309363082051,0.0,0.0,0.0,0,3,1,0.0,0.0025641026441,0.0,0.0198019798845,-1.0,0.937343358994,-0.998161792755,1.361144426e+14,7,0.00608920073137,-0.00676324125379,-2.07816648483,0.010095958598,0.0152968000621,-0.000116933733807,0.55887812376,-0.558540701866,-9.67715835571
77124607,-0.301894396544,0.31067109108,-10.0310764313,-0.0149190807715,-0.0267247706652,0.00297609483823,-0.0295716207474,0.168481230736,0.379062443972,0.0,0.0,-0.357031315565,0.0,0.0,-0.031009670347,0.0,0.0,0.0,0,3,1,0.0,0.0025641026441,0.0,0.0198019798845,-0.99816006422,0.93483710289,-0.998161792755,1.361144426e+14,7,0.00564730167389,-0.0070598940365,-2.07319331169,-0.021705981344,-0.0254716314375,0.00939455907792,-0.301894396544,0.31067109108,-10.0310764313
77146549,0.51132619381,-0.396348536015,-9.46422672272,0.00401997892186,0.00280305882916,0.00150250992738,-0.0561756454408,0.12603725493,0.360370218754,0.0,0.0,-0.360360950232,0.0,0.0,-0.0327524803579,0.0,0.0,0.0,0,3,1,0.0,-0.0,0.0,0.0198019798845,-1.0,0.937343358994,-0.998161792755,1.361144426e+14,7,0.00600628647953,-0.00681220879778,-2.07182621956,0.0168209411204,0.0156400632113,-0.00455599930137,0.51132619381,-0.396348536015,-9.46422672272
77167917,-0.638339102268,0.510211110115,-9.70888996124,-0.0235881526023,-0.0176172573119,0.00692309718579,0.0144626367837,0.0944123342633,0.387073397636,0.0,0.0,-0.361673861742,0.0,0.0,-0.0330162644386,0.0,0.0,0.0,0,3,1,0.0,0.0025641026441,0.0,0.0198019798845,-1.0,0.937343358994,-0.998161792755,1.361144426e+14,7,0.00552395870909,-0.00721351383254,-2.06299853325,-0.0304299574345,-0.0243873186409,0.0138739235699,-0.638339102268,0.510211110115,-9.70888996124
77189180,0.184298813343,-0.425761908293,-9.74431037903,0.0410850569606,0.0257032532245,-0.0101037761196,-0.0561756454408,0.131862893701,0.367491066456,0.0,0.0,-0.367501914501,0.0,0.0,-0.036034937948,0.0,0.0,0.0,0,3,1,0.0,0.0025641026441,0.0,0.0198019798845,-1.0,0.937343358994,-0.998161792755,1.361144426e+14,7,0.00577214919031,-0.00705433497205,-2.06045055389,0.0311239548028,0.020716285333,-0.0122265694663,0.184298813343,-0.425761908293,-9.74431037903
77211002,-0.243918895721,0.0493058934808,-9.73364162445,-0.0605685412884,-0.0443536266685,0.0226661488414,0.00437146006152,0.126869499683,0.40131509304,0.0,0.0,-0.366303294897,0.0,0.0,-0.0352018810809,0.0,0.0,0.0,0,3,1,0.0,0.0025641026441,0.0,0.0222772285342,-1.0,0.93483710289,-0.996323525906,1.361144426e+14,7,0.00559713784605,-0.00716829765588,-2.05378961563,-0.0420234650373,-0.0292403232306,0.0182085670531,-0.243918895721,0.0493058934808,-9.73364162445
77232753,-0.522808074951,0.281716972589,-9.67358970642,0.0728699266911,0.0537273138762,-0.0224262028933,0.0199669245631,0.10689586401,0.396864563227,0.0,0.0,-0.365631699562,0.0,0.0,-0.0347379893064,0.0,0.0,0.0,0,3,1,0.0,0.0025641026441,0.0,0.0222772285342,-1.0,0.937343358994,-0.998161792755,1.361144426e+14,7,0.00520852860063,-0.00752443261445,-2.04803872108,0.0247804969549,0.0154754891992,-0.0113628525287,-0.522808074951,0.281716972589,-9.67358970642
77255180,0.105711445212,-0.173494711518,-9.7175693512,-0.0609036758542,-0.0437313728034,0.0238197091967,-0.0983751341701,0.134359613061,0.386183291674,0.0,0.0,-0.366935372353,0.0,0.0,-0.0356027632952,0.0,0.0,0.0,0,3,1,0.0,0.0025641026441,0.0,0.0222772285342,-1.0,0.937343358994,-0.998161792755,1.361144426e+14,7,0.0059451982379,-0.00687346979976,-2.04669332504,-0.0180462691933,-0.00845826230943,0.0125945117325,0.105711445212,-0.173494711518,-9.7175693512
77275867,-0.656445503235,0.684260606766,-9.73955440521,0.00208097393624,-0.00363462255336,-0.00231010327116,0.0190495401621,0.131862893701,0.388853609562,0.0,0.0,-0.365210533142,0.0,0.0,-0.0341879948974,0.0,0.0,0.0,0,3,1,0.0,0.0025641026441,0.0,0.0222772285342,-1.0,0.937343358994,-0.998161792755,1.361144426e+14,7,0.00495138345286,-0.00770367635414,-2.03969621658,-0.0318702086806,-0.0295209195465,0.00760560296476,-0.656445503235,0.684260606766,-9.73955440521
77297341,0.692588567734,-0.925871968269,-9.57224082947,0.0458738766611,0.0407198518515,-0.0111670447513,0.0227190610021,0.125205025077,0.388853609562,0.0,0.0,-0.367518752813,0.0,0.0,-0.0356661342084,0.0,0.0,0.0,0,3,1,0.0,0.0025641026441,0.0,0.0222772285342,-1.0,0.937343358994,-0.998161792755,1.361144426e+14,7,0.00588893797249,-0.00697792740539,-2.02659034729,0.0587546974421,0.0497978404164,-0.0139733329415,0.692588567734,-0.925871968269,-9.57224082947
77319362,-0.501252651215,0.491910040379,-9.90504646301,-0.0627743005753,-0.0563068762422,0.0116935484111,-0.0726884827018,0.0910833999515,0.379062443972,0.0,0.0,-0.3661493361,0.0,0.0,-0.0345962196589,0.0,0.0,0.0,0,3,1,0.0,0.0025641026441,0.0,0.0198019798845,-0.99816006422,0.93483710289,-0.998161792755,1.361144426e+14,7,0.00526756653562,-0.00740475766361,-2.02385306358,-0.0583511292934,-0.0488815270364,0.0193965248764,-0.501252651215,0.491910040379,-9.90504646301
77340418,-0.149784713984,0.022310283035,-10.0231018066,0.0935042351484,0.0771204531193,-0.0169156938791,-0.0433323159814,0.129366204143,0.386183291674,0.0,0.0,-0.366791158915,0.0,0.0,-0.0349591970444,0.0,0.0,0.0,0,3,1,0.0,0.0025641026441,0.0,0.0198019798845,-0.99816006422,0.93483710289,-0.998161792755,1.361144426e+14,7,0.00523540331051,-0.00750926323235,-2.02283143997,0.047305252403,0.0378456711769,-0.0150752179325,-0.149784713984,0.022310283035,-10.0231018066
77361720,0.312201023102,-0.324539542198,-9.64101028442,-0.0641948282719,-0.0478808395565,0.0226932447404,-0.0543408766389,0.107728101313,0.379952549934,0.0,0.0,-0.366403788328,0.0,0.0,-0.0348913148046,0.0,0.0,0.0,0,3,1,0.0,0.0025641026441,0.0,0.0198019798845,-1.0,0.937343358994,-0.998161792755,1.361144426e+14,7,0.00597818940878,-0.0068111596629,-2.01833605766,-0.00958655122668,-0.00260230270214,0.0115096177906,0.312201023102,-0.324539542198,-9.64101028442
77383840,-0.879850804806,0.60709798336,-9.63740158081,0.0397806242108,0.0314020588994,-0.020276080817,0.00253669242375,0.0927478671074,0.379952549934,0.0,0.0,-0.364012271166,0.0,0.0,-0.0332897752523,0.0,0.0,0.0,0,3,1,0.0,0.0025641026441,0.0,0.0198019798845,-1.0,0.937343358994,-0.998161792755,1.361144426e+14,7,0.00479357549921,-0.00792183168232,-2.01261258125,-0.0132630253211,-0.015900420025,-0.00479350239038,-0.879850804806,0.60709798336,-9.63740158081
77405276,0.675011098385,-0.863348603249,-9.29350471497,0.00780639145523,0.0138876270503,0.0193668305874,0.00528882909566,0.098573513329,0.379952549934,0.0,0.0,-0.361278146505,0.0,0.0,-0.0322743020952,0.0,0.0,0.0,0,3,1,0.0,0.0025641026441,0.0,0.0222772285342,-1.0,0.93483710289,-0.996323525906,1.361144426e+14,7,0.00601776968688,-0.00685629528016,-2.00850009918,0.0483061522245,0.0445984862745,0.00400755694136,0.675011098385,-0.863348603249,-9.29350471497
77427523,-0.670347929001,0.600045144558,-9.82548999786,-0.00941138807684,-0.013244013302,-0.00884396117181,-0.0470018386841,0.120211623609,0.389743715525,0.0,0.0,-0.361559838057,0.0,0.0,-0.0318556241691,0.0,0.0,0.0,0,3,1,0.0,0.0025641026441,0.0,0.0198019798845,-0.99816006422,0.93483710289,-0.998161792755,1.361144426e+14,7,0.00508141843602,-0.00765465060249,-2.00486946106,-0.0382286980748,-0.0364123992622,-0.00110566685908,-0.670347929001,0.600045144558,-9.82548999786
77448333,0.614730656147,-0.78139591217,-9.59548187256,0.0373426117003,0.0348210372031,0.00751352217048,-0.0754406303167,0.144346430898,0.39063385129,0.0,0.0,-0.363206267357,0.0,0.0,-0.0327687487006,0.0,0.0,0.0,0,3,1,0.0,0.0025641026441,0.0,0.0198019798845,-1.0,0.937343358994,-0.998161792755,1.361144426e+14,7,0.00587926851586,-0.00701660150662,-2.00608778,0.0488119274378,0.0428845100105,-0.00106034660712,0.614730656147,-0.78139591217,-9.59548187256
77469572,-0.548914313316,0.466763615608,-9.86476898193,-0.0502982288599,-0.0483507439494,0.00425411434844,-0.00847186800092,0.102734684944,0.379952549934,0.0,0.0,-0.364005565643,0.0,0.0,-0.0331676639616,0.0,0.0,0.0,0,3,1,0.0,0.0025641026441,0.0,0.0222772285342,-1.0,0.937343358994,-0.998161792755,1.361144426e+14,7,0.0054540913552,-0.00732135586441,-2.00313258171,-0.0413577482104,-0.0363998562098,0.00970997847617,-0.548914313316,0.466763615608,-9.86476898193
77491430,0.720239758492,-0.828870177269,-9.50802612305,0.034412369132,0.031087404117,0.00410758284852,-0.0488366037607,0.106063626707,0.374611914158,0.0,0.0,-0.364289432764,0.0,0.0,-0.0335413776338,0.0,0.0,0.0,0,3,1,0.0,0.0025641026441,0.0,0.0198019798845,-0.99816006422,0.93483710289,-0.998161792755,1.361144426e+14,7,0.00600929139182,-0.00692678336054,-2.00179600716,0.0459553338587,0.0382642038167,-0.00447105197236,0.720239758492,-0.828870177269,-9.50802612305
77511911,-0.621958494186,0.450813293457,-9.89299106598,-0.0638717487454,-0.0553483776748,0.00624957028776,-0.0369106605649,0.0977412760258,0.383513003588,0.0,0.0,-0.36403504014,0.0,0.0,-0.0332251079381,0.0,0.0,0.0,0,3,1,0.0,0.0025641026441,0.0,0.0222772285342,-1.0,0.937343358994,-0.998161792755,1.361144426e+14,7,0.00547607848421,-0.00732979178429,-1.99692964554,-0.0516447275877,-0.0428389795125,0.0121915265918,-0.621958494186,0.450813293457,-9.89299106598
77533176,-0.0897782966495,-0.281749278307,-9.87368965149,0.0849568247795,0.0709064900875,-0.0110464943573,-0.0148935252801,0.141017496586,0.391523957253,0.0,0.0,-0.361199826002,0.0,0.0,-0.0319227539003,0.0,0.0,0.0,0,3,1,0.0,0.0025641026441,0.0,0.0222772285342,-1.0,0.93483710289,-0.996323525906,1.361144426e+14,7,0.00553122116253,-0.00741479964927,-1.99342906475,0.0461168661714,0.0352475009859,-0.0102574247867,-0.0897782966495,-0.281749278307,-9.87368965149
77555772,-0.406314283609,0.169278711081,-9.79856395721,-0.0769893825054,-0.0655243769288,0.0137813128531,-0.0130587723106,0.159326657653,0.397754698992,0.0,0.0,-0.360985606909,0.0,0.0,-0.0321464128792,0.0,0.0,0.0,0,3,1,0.0,0.0025641026441,0.0,0.0222772285342,-1.0,0.93483710289,-0.996323525906,1.361144426e+14,7,0.0057116067037,-0.00715983752161,-1.98828756809,-0.0442316606641,-0.0346226841211,0.0144380955026,-0.406314283609,0.169278711081,-9.79856395721
77576491,-0.535767972469,0.0396072417498,-9.55808067322,0.0737987086177,0.0625942051411,-0.00683085760102,-0.0479192212224,0.0994057431817,0.389743715525,0.0,0.0,-0.360766977072,0.0,0.0,-0.0317524075508,0.0,0.0,0.0,0,3,1,0.0,0.0025641026441,0.0,0.0222772285342,-1.0,0.937343358994,-0.998161792755,1.361144426e+14,7,0.0052600777708,-0.00765810254961,-1.98853135109,0.0223733559251,0.0147932581604,-0.00460157450289,-0.535767972469,0.0396072417498,-9.55808067322
77597642,0.412136942148,-0.409176409245,-9.43042755127,-0.0410157293081,-0.032036267221,0.0206820648164,-0.0048023480922,0.143514186144,0.382622867823,0.0,0.0,-0.359371602535,0.0,0.0,-0.0311303976923,0.0,0.0,0.0,0,3,1,0.0,-0.0,0.0,0.0198019798845,-1.0,0.937343358994,-0.998161792755,1.361144426e+14,7,0.00606815051287,-0.00683704065159,-1.98343539238,0.0060011879541,0.0097402157262,0.0118410009891,0.412136942148,-0.409176409245,-9.43042755127
77620206,-0.513239979744,0.282381862402,-9.59990215302,0.0575161911547,0.0467703044415,-0.00857205316424,0.00528882909566,0.125205025077,0.38440310955,0.0,0.0,-0.360677152872,0.0,0.0,-0.0314340256155,0.0,0.0,0.0,0,3,1,0.0,0.0025641026441,0.0,0.0222772285342,-1.0,0.937343358994,-0.998161792755,1.361144426e+14,7,0.0053648930043,-0.00754360109568,-1.97820603848,0.00911357719451,0.0041406461969,-0.00481919851154,-0.513239979744,0.282381862402,-9.59990215302
77641285,0.535423398018,-0.474680781364,-9.51307964325,-0.0384315401316,-0.0293770823628,0.0208302251995,-0.0690189749002,0.109392568469,0.398644804955,0.0,0.0,-0.359982728958,0.0,0.0,-0.0312095396221,0.0,0.0,0.0,0,3,1,0.0,-0.0,0.0,0.0198019798845,-1.0,0.937343358994,-0.998161792755,1.361144426e+14,7,0.00610191235319,-0.00681314663962,-1.9820702076,0.00519321579486,0.00902039837092,0.0094088409096,0.535423398018,-0.474680781364,-9.51307964325
77662274,-0.84515619278,0.73386245966,-9.75769996643,0.0142859164625,0.00688347313553,-0.00390070257708,-0.0580103993416,0.121043846011,0.391523957253,0.0,0.0,-0.36344575882,0.0,0.0,-0.0324893333018,0.0,0.0,0.0,0,3,1,0.0,-0.0,0.0,0.0198019798845,-1.0,0.937343358994,-0.998161792755,1.361144426e+14,7,0.00520605780184,-0.00764578441158,-1.97733461857,-0.0244871526957,-0.0244505852461,0.00307755451649,-0.84515619278,0.73386245966,-9.75769996643
77684035,0.585116267204,-0.565348446369,-9.45049285889,-0.0320895016193,-0.0209438428283,0.0200869254768,-0.0259020999074,0.12603725493,0.38173276186,0.0,0.0,-0.365050315857,0.0,0.0,-0.0335567258298,0.0,0.0,0.0,0,3,1,0.0,0.0025641026441,0.0,0.0222772285342,-1.0,0.937343358994,-0.998161792755,1.361144426e+14,7,0.00618347292766,-0.00679638236761,-1.97326862812,0.0152677008882,0.0166503414512,0.00753219332546,0.585116267204,-0.565348446369,-9.45049285889
77704652,-0.782858014107,0.762644290924,-9.91034603119,-0.0164073780179,-0.0166648440063,-0.00394124677405,0.0227190610021,0.130198433995,0.379952549934,0.0,0.0,-0.365822136402,0.0,0.0,-0.0334310345352,0.0,0.0,0.0,0,3,1,0.0,0.0025641026441,0.0,0.0222772285342,-1.0,0.937343358994,-0.998161792755,1.361144426e+14,7,0.00513020437211,-0.00769566791132,-1.96684443951,-0.0446375571191,-0.0389339216053,0.00381306838244,-0.782858014107,0.762644290924,-9.91034603119
77725954,0.756876766682,-0.962955474854,-9.61053657532,0.0432321466506,0.0417286194861,0.00440126517788,-0.01122400444,0.10689586401,0.375502020121,0.0,0.0,-0.365956246853,0.0,0.0,-0.033612024039,0.0,0.0,0.0,0,3,1,0.0,0.0025641026441,0.0,0.0198019798845,-1.0,0.937343358994,-0.998161792755,1.361144426e+14,7,0.00600282754749,-0.0070067178458,-1.9651747942,0.0558968521655,0.048885513097,-0.00423897756264,0.756876766682,-0.962955474854,-9.61053657532
77748248,-0.679426312447,0.604158163071,-9.91644668579,-0.0405932888389,-0.0408473014832,-0.000326145498548,0.0208842940629,0.126869499683,0.387073397636,0.0,0.0,-0.364551872015,0.0,0.0,-0.0326473154128,0.0,0.0,0.0,0,3,1,0.0,-0.0,0.0,0.0198019798845,-1.0,0.937343358994,-0.998161792755,1.361144426e+14,7,0.0052567482926,-0.00757103180513,-1.96186554432,-0.0511746145785,-0.0453273206949,0.00786002166569,-0.679426312447,0.604158163071,-9.91644668579
77769176,0.445540249348,-0.469819128513,-9.95372200012,0.0612112358212,0.0607604458928,-0.00447622267529,-0.0763580128551,0.136024072766,0.396864563227,0.0,0.0,-0.36613959074,0.0,0.0,-0.0332436263561,0.0,0.0,0.0,0,3,1,0.0,-0.0,0.0,0.0198019798845,-1.0,0.937343358994,-0.998161792755,1.361144426e+14,7,0.00567250745371,-0.00721475062892,-1.96169197559,0.0482507832348,0.0452956259251,-0.00801155716181,0.445540249348,-0.469819128513,-9.95372200012
77790403,-0.360714167356,0.212357580662,-9.93774318695,-0.0559336543083,-0.0506584867835,0.0161128155887,-0.0580103993416,0.149339839816,0.388853609562,0.0,0.0,-0.366538614035,0.0,0.0,-0.0332472585142,0.0,0.0,0.0,0,3,1,0.0,-0.0,0.0,0.0198019798845,-1.0,0.937343358994,-0.998161792755,1.361144426e+14,7,0.00565268564969,-0.00708002364263,-1.95667171478,-0.0294022858143,-0.0237261503935,0.0134428814054,-0.360714167356,0.212357580662,-9.93774318695
77812379,0.340235441923,-0.502484560013,-9.8236541748,0.0593465492129,0.0547713115811,-0.0125586781651,-0.0038849641569,0.0919156298041,0.397754698992,0.0,0.0,-0.369149118662,0.0,0.0,-0.0349076017737,0.0,0.0,0.0,0,3,1,0.0,0.0025641026441,0.0,0.0222772285342,-1.0,0.937343358994,-0.998161792755,1.361144426e+14,7,0.00577864935622,-0.00711418548599,-1.95434379578,0.0442263148725,0.0371979512274,-0.00989667512476,0.340235441923,-0.502484560013,-9.8236541748
77833713,-0.379541248083,0.14056289196,-9.86908340454,-0.0720225572586,-0.0616455860436,0.0157677717507,-0.0158109087497,0.111057035625,0.39063385129,0.0,0.0,-0.371805310249,0.0,0.0,-0.0364254713058,0.0,0.0,0.0,0,3,1,0.0,0.0025641026441,0.0,0.0222772285342,-1.0,0.937343358994,-0.998161792755,1.361144426e+14,7,0.00567076448351,-0.00712056085467,-1.95216453075,-0.0416811965406,-0.0346551835537,0.0129637690261,-0.379541248083,0.14056289196,-9.86908340454
77856442,0.295218795538,-0.460621356964,-9.92876815796,0.0734349191189,0.0644189566374,-0.0185670517385,-0.0470018386841,0.157662183046,0.382622867823,0.0,0.0,-0.369374275208,0.0,0.0,-0.0352534987032,0.0,0.0,0.0,0,3,1,0.0,-0.0,0.0,0.0222772285342,-1.0,0.937343358994,-0.998161792755,1.361144426e+14,7,0.00565376738086,-0.00724222091958,-1.95119059086,0.049012824893,0.0403346382082,-0.0130447279662,0.295218795538,-0.460621356964,-9.92876815796
77877174,-0.214667111635,-0.121172226965,-9.81795787811,-0.0697547495365,-0.0610834732652,0.0223831851035,-0.021315196529,0.103566922247,0.391523957253,0.0,0.0,-0.370166420937,0.0,0.0,-0.0359181053936,0.0,0.0,0.0,0,3,1,0.0,0.0025641026441,0.00507614202797,0.0247524753213,-1.0,0.937343358994,-0.998161792755,1.361144426e+14,7,0.00580176291987,-0.00704247504473,-1.94945788383,-0.0321439802647,-0.0266417954117,0.0165112111717,-0.214667111635,-0.121172226965,-9.81795787811
77898331,-0.523039340973,0.37101355195,-9.61041069031,0.0632789060473,0.0522252321243,-0.0246919579804,-0.0130587723106,0.100237980485,0.393304169178,0.0,0.0,-0.368783414364,0.0,0.0,-0.0353592075408,0.0,0.0,0.0,0,3,1,0.0,0.0025641026441,0.0596446692944,0.0222772285342,-1.0,0.937343358994,-0.998161792755,1.361144426e+14,7,0.00517383264378,-0.00767266750336,-1.94684135914,0.0110723515972,0.00629395525903,-0.00964802224189,-0.523039340973,0.37101355195,-9.61041069031
77921503,-0.0739311873913,-0.0179592631757,-9.75793266296,-0.0406442433596,-0.0360689237714,0.0344904363155,-0.0249847173691,0.152668789029,0.395974457264,0.0,0.0,-0.368707895279,0.0,0.0,-0.0357392579317,0.0,0.0,0.0,0,3,1,0.0,0.0025641026441,0.0748730972409,0.0222772285342,-1.0,0.937343358994,-0.998161792755,1.361144426e+14,7,0.00582678662613,-0.00699191121385,-1.94595360756,-0.00814208667725,-0.00396097265184,0.0151124214754,-0.0739311873913,-0.0179592631757,-9.75793266296
77942868,-0.179219484329,-0.0534236133099,-9.6642999649,0.0557042062283,0.0477139055729,-0.0357186757028,0.0062062125653,0.157662183046,0.407545864582,0.0,0.0,-0.368865907192,0.0,0.0,-0.0355855040252,0.0,0.0,0.0,0,3,1,0.0,0.0025641026441,0.0875634551048,0.0222772285342,-1.0,0.937343358994,-0.998161792755,1.361144426e+14,7,0.00562709709629,-0.00736164720729,-1.94301342964,0.0215258486569,0.014342803508,-0.00583567284048,-0.179219484329,-0.0534236133099,-9.6642999649
77966116,-0.670262873173,0.252184540033,-9.99726009369,-0.0467788763344,-0.0510879233479,0.0442620441318,-0.0286542363465,0.110224798322,0.398644804955,0.0,0.0,-0.369141757488,0.0,0.0,-0.0359196998179,0.0,0.0,0.0,0,3,1,0.0,0.0025641026441,0.0875634551048,0.0222772285342,-1.0,0.937343358994,-0.998161792755,1.361144426e+14,7,0.00574386306107,-0.00714266160503,-1.94359660149,-0.0292670167983,-0.0287304539233,0.0323898419738,-0.670262873173,0.252184540033,-9.99726009369
77987171,0.556767463684,-0.228926807642,-9.81045246124,0.0520509853959,0.053218357265,-0.0410382151604,-0.0341585092247,0.150172069669,0.402205199003,0.0,0.0,-0.376468330622,0.0,0.0,-0.0393271893263,0.0,0.0,0.0,0,3,1,0.0,0.0025641026441,0.0888324901462,0.0247524753213,-1.0,0.937343358994,-0.998161792755,1.361144426e+14,7,0.00564254168421,-0.00721005909145,-1.93808209896,0.0226945951581,0.026490310207,-0.0326665565372,0.556767463684,-0.228926807642,-9.81045246124
78008843,-0.819716870785,0.236244648695,-9.84724617004,0.00107469246723,-0.00112739077304,0.01842732355,-0.0580103993416,0.113553732634,0.40042501688,0.0,0.0,-0.37607717514,0.0,0.0,-0.0387671813369,0.0,0.0,0.0,0,3,1,0.0,0.0025641026441,0.0901015251875,0.0222772285342,-1.0,0.937343358994,-0.998161792755,1.361144426e+14,7,0.0057994662784,-0.00721766613424,-1.94000768661,-0.00174065295141,-0.0056279101409,0.0281397290528,-0.819716870785,0.236244648695,-9.84724617004
78029458,0.425939381123,-0.418146342039,-9.45297431946,-0.0136105045676,-0.0191685948521,-0.00703551387414,-0.0332411415875,0.107728101313,0.397754698992,0.0,0.0,-0.379206687212,0.0,0.0,-0.0401958525181,0.0,0.0,0.0,0,3,1,0.0,-0.0,0.0888324901462,0.0222772285342,-1.0,0.937343358994,-0.998161792755,1.361144426e+14,7,0.00607691332698,-0.00678184209391,-1.93890559673,0.00412663444877,0.00347365345806,-0.0192406028509,0.425939381123,-0.418146342039,-9.45297431946
78050880,-0.625775098801,0.216195479035,-9.74028205872,0.000852922617923,0.0123217422515,0.0282791368663,-0.0534235090017,0.131862893701,0.406655758619,0.0,0.0,-0.379818856716,0.0,0.0,-0.0400547832251,0.0,0.0,0.0,0,3,1,0.0,0.0025641026441,0.0888324901462,0.0247524753213,-1.0,0.93483710289,-0.996323525906,1.361144426e+14,7,0.0056151044555,-0.00740539235994,-1.94034016132,-0.0163820460439,-0.0127733722329,0.034621283412,-0.625775098801,0.216195479035,-9.74028205872
78072987,-0.186741530895,-0.172862991691,-9.6679019928,-0.0152921639383,-0.0190384741873,0.0345586836338,-0.0488366037607,0.130198433995,0.392414063215,0.0,0.0,-0.379231452942,0.0,0.0,-0.0398110412061,0.0,0.0,0.0,0,3,1,0.0,-0.0,0.0888324901462,0.0222772285342,-1.0,0.937343358994,-0.998161792755,1.361144426e+14,7,0.00592021876946,-0.0069937761873,-1.93945729733,0.0027884405572,-0.00176762719639,-0.0102799907327,-0.186741530895,-0.172862991691,-9.6679019928
78093930,0.332251608372,0.0867334157228,-9.91008090973,0.00845148600638,0.0191440358758,-0.0272838193923,-0.0038849641569,0.126869499683,0.392414063215,0.0,0.0,-0.380002707243,0.0,0.0,-0.0398421399295,0.0,0.0,0.0,0,3,1,0.0,0.0025641026441,0.0888324901462,0.0222772285342,-1.0,0.937343358994,-0.998161792755,1.361144426e+14,7,0.00586427794769,-0.00707204733044,-1.93556547165,0.00290370010771,0.0101900594309,0.0189362391829,0.332251608372,0.0867334157228,-9.91008090973
78115339,-0.585865259171,-0.207091480494,-9.90094947815,-0.0160174388438,-0.0199487805367,0.0363333672285,-0.00755448453128,0.0935801044106,0.40131509304,0.0,0.0,-0.380912184715,0.0,0.0,-0.0400720648468,0.0,0.0,0.0,0,3,1,0.0,0.0025641026441,0.0888324901462,0.0222772285342,-1.0,0.937343358994,-0.998161792755,1.361144426e+14,7,0.00580652989447,-0.00717475218698,-1.93210101128,-0.0106212673709,-0.0153909986839,-0.00937161035836,-0.585865259171,-0.207091480494,-9.90094947815
78136975,0.138671979308,-0.0533372722566,-9.51939868927,0.00804163794965,-0.00198148237541,-0.0790095925331,-0.0185630451888,0.120211623609,0.386183291674,0.0,0.0,-0.38516882062,0.0,0.0,-0.0424057878554,0.0,0.0,0.0,0,3,1,0.0,-0.0,0.0888324901462,0.0222772285342,-1.0,0.937343358994,-0.998161792755,1.361144426e+14,7,0.00584618281573,-0.00697829341516,-1.92540609837,0.0119313532487,0.0100808981806,-0.022426776588,0.138671979308,-0.0533372722566,-9.51939868927
78157527,-0.382241249084,-0.0129050947726,-9.65126991272,0.00605799909681,0.0127541739494,0.0918890312314,-0.00205021142028,0.107728101313,0.40042501688,0.0,0.0,-0.384788364172,0.0,0.0,-0.0420255921781,0.0,0.0,0.0,0,3,1,0.0,0.0025641026441,0.0888324901462,0.0222772285342,-0.99816006422,0.93483710289,-0.998161792755,1.361144426e+14,7,0.00588225247338,-0.00714779738337,-1.92521989346,-0.0018317673821,-0.00114880409092,0.0384659208357,-0.382241249084,-0.0129050947726,-9.65126991272
78178862,-0.131293237209,-0.0282752551138,-9.67587089539,-0.00259942212142,-0.0124184787273,-0.0851985216141,-0.0470018386841,0.124372787774,0.395974457264,0.0,0.0,-0.385700523853,0.0,0.0,-0.0426461957395,0.0,0.0,0.0,0,3,1,0.0,0.0025641026441,0.0901015251875,0.0222772285342,-1.0,0.937343358994,-0.998161792755,1.361144426e+14,7,0.00581621332094,-0.00706823822111,-1.92468106747,-0.000701752083842,-0.00418755831197,-0.0425447523594,-0.131293237209,-0.0282752551138,-9.67587089539
78201189,0.193051502109,0.0207519885153,-9.72226715088,-0.0047959163785,0.0023309472017,0.0346862599254,-0.035075891763,0.180132523179,0.392414063215,0.0,0.0,-0.386960089207,0.0,0.0,-0.042976744473,0.0,0.0,0.0,0,3,1,0.0,0.0025641026441,0.0901015251875,0.0222772285342,-1.0,0.937343358994,-0.998161792755,1.361144426e+14,7,0.00595771474764,-0.0070063713938,-1.91978478432,0.00274185999297,0.00780857587233,0.0468969419599,0.193051502109,0.0207519885153,-9.72226715088
78222059,-0.477877497673,-0.103362888098,-9.91144561768,0.00562754459679,-0.00351597787812,-0.0230071954429,-0.061679918319,0.126869499683,0.399534910917,0.0,0.0,-0.388006567955,0.0,0.0,-0.0431245192885,0.0,0.0,0.0,0,3,1,0.0,0.0025641026441,0.0901015251875,0.0222772285342,-1.0,0.937343358994,-0.998161792755,1.361144426e+14,7,0.0056978831999,-0.00729159777984,-1.91775047779,-0.00652823690325,-0.0116381188855,-0.0396847240627,-0.477877497673,-0.103362888098,-9.91144561768
78243298,0.296374231577,-0.0665660127997,-9.43636512756,-0.00590900797397,-0.00768975447863,0.0113071966916,-0.0552582629025,0.153501003981,0.39063385129,0.0,0.0,-0.389631092548,0.0,0.0,-0.0439779758453,0.0,0.0,0.0,0,3,1,0.0,0.0025641026441,0.0901015251875,0.0222772285342,-1.0,0.937343358994,-0.998161792755,1.361144426e+14,7,0.00597707601264,-0.00698547996581,-1.91860616207,0.00829844549298,0.00910458527505,0.0301608107984,0.296374231577,-0.0665660127997,-9.43636512756
78265322,-0.262333661318,-0.464744627476,-9.63005256653,0.0266037415713,0.030794236809,0.0167350396514,-0.0277368538082,0.131030678749,0.393304169178,0.0,0.0,-0.390239179134,0.0,0.0,-0.0440385490656,0.0,0.0,0.0,0,3,1,0.0,0.0025641026441,0.0888324901462,0.0247524753213,-1.0,0.93483710289,-0.996323525906,1.361144426e+14,7,0.00593118509278,-0.00716866226867,-1.91688811779,0.0122121693566,0.01119105611,-0.00230300892144,-0.262333661318,-0.464744627476,-9.63005256653
78286604,-0.36031973362,0.097212985158,-9.84592437744,-0.0182025544345,-0.0253318063915,0.002598809544,-0.00938925240189,0.126869499683,0.403985440731,0.0,0.0,-0.392787963152,0.0,0.0,-0.0452429354191,0.0,0.0,0.0,0,3,1,0.0,-0.0,0.0888324901462,0.0222772285342,-1.0,0.937343358994,-0.998161792755,1.361144426e+14,7,0.005866501946,-0.0070555889979,-1.91249907017,-0.0111834779382,-0.0122004738078,0.00870867818594,-0.36031973362,0.097212985158,-9.84592437744
78307933,0.258423268795,-0.424291193485,-9.67512702942,0.018656603992,0.0276635792106,-0.00813517812639,-0.0378280431032,0.13685631752,0.393304169178,0.0,0.0,-0.391976267099,0.0,0.0,-0.0447843596339,0.0,0.0,0.0,0,3,1,0.0,-0.0,0.0888324901462,0.0222772285342,-1.0,0.937343358994,-0.998161792755,1.361144426e+14,7,0.00601247744635,-0.00704348227009,-1.91212272644,0.0157769620419,0.0183766409755,-0.00744036724791,0.258423268795,-0.424291193485,-9.67512702942
78331368,-0.697569787502,0.235544905066,-9.90334224701,0.00413921196014,-0.000652152928524,0.022695876658,-0.0359932780266,0.141017496586,0.387963503599,0.0,0.0,-0.390491753817,0.0,0.0,-0.0436560586095,0.0,0.0,0.0,0,3,1,0.0,-0.0,0.0888324901462,0.0222772285342,-1.0,0.937343358994,-0.998161792755,1.361144426e+14,7,0.00580398086458,-0.00721946638077,-1.91281533241,-0.00666537275538,-0.0120458928868,0.0218489505351,-0.697569787502,0.235544905066,-9.90334224701
78353646,0.374700307846,-0.0193643681705,-9.67175483704,-0.0235253795981,-0.0245356634259,0.0130628775805,-0.035075891763,0.111057035625,0.387073397636,0.0,0.0,-0.389029592276,0.0,0.0,-0.0429001413286,0.0,0.0,0.0,0,3,1,0.0,0.0025641026441,0.0901015251875,0.0222772285342,-1.0,0.937343358994,-0.998161792755,1.361144426e+14,7,0.00594212021679,-0.00689688371494,-1.91403567791,-0.00883060134947,-0.00467604584992,-0.0128518966958,0.374700307846,-0.0193643681705,-9.67175483704
78374376,-0.470071643591,-0.0210566855967,-9.48701095581,0.0184384919703,0.0281646288931,-0.00896493718028,-0.0277368538082,0.165152296424,0.394194245338,0.0,0.0,-0.388800144196,0.0,0.0,-0.0427036322653,0.0,0.0,0.0,0,3,1,0.0,0.0025641026441,0.0901015251875,0.0222772285342,-1.0,0.937343358994,-0.998161792755,1.361144426e+14,7,0.00585031555966,-0.00723737478256,-1.90712463856,0.00614974508062,0.00571893621236,0.0256229955703,-0.470071643591,-0.0210566855967,-9.48701095581
78395672,0.091517329216,0.0432047620416,-9.7519197464,-0.0155868250877,-0.020951686427,0.0203656833619,-0.0488366037607,0.132695138454,0.39063385129,0.0,0.0,-0.390341699123,0.0,0.0,-0.0437002182007,0.0,0.0,0.0,0,3,1,0.0,-0.0,0.0888324901462,0.0222772285342,-1.0,0.937343358994,-0.998161792755,1.361144426e+14,7,0.0058798561804,-0.00692346598953,-1.90730905533,-0.0072403261438,-0.00630225008354,-0.021002791822,0.091517329216,0.0432047620416,-9.7519197464
78417650,0.184510067105,0.199796617031,-9.794672966,0.00787643436342,0.0167713817209,-0.0726847052574,-0.0038849641569,0.110224798322,0.392414063215,0.0,0.0,-0.389414489269,0.0,0.0,-0.0432422123849,0.0,0.0,0.0,0,3,1,0.0,0.0025641026441,0.0901015251875,0.0222772285342,-1.0,0.937343358994,-0.998161792755,1.361144426e+14,7,0.00589910149574,-0.00709366844967,-1.90190958977,0.00794894900173,0.0121725806966,-0.00160744786263,0.184510067105,0.199796617031,-9.794672966
78439035,-0.37620651722,-0.175458818674,-9.78463459015,-0.00216593453661,-0.0145900212228,0.0937928035855,-0.0414975658059,0.121876083314,0.386183291674,0.0,0.0,-0.39094877243,0.0,0.0,-0.0437133535743,0.0,0.0,0.0,0,3,1,0.0,0.0025641026441,0.0901015251875,0.0222772285342,-1.0,0.937343358994,-0.998161792755,1.361144426e+14,7,0.00586164882407,-0.00711354287341,-1.90271735191,-0.00507023092359,-0.011108674109,0.0102860443294,-0.37620651722,-0.175458818674,-9.78463459015
78460190,0.0474976822734,0.190289199352,-9.4666891098,0.00304135424085,0.00939775444567,-0.116046026349,-0.0552582629025,0.141017496586,0.40131509304,0.0,0.0,-0.392566233873,0.0,0.0,-0.0445358194411,0.0,0.0,0.0,0,3,1,0.0,0.0025641026441,0.0901015251875,0.0222772285342,-1.0,0.937343358994,-0.998161792755,1.361144426e+14,7,0.00593633484095,-0.00704578077421,-1.90431642532,0.00925304740667,0.01297041215,-0.0122992955148,0.0474976822734,0.190289199352,-9.4666891098
78481764,-0.66691672802,-0.0394825898111,-9.76474285126,0.0183715671301,0.0158336944878,0.163515418768,-0.00296758045442,0.142681956291,0.396864563227,0.0,0.0,-0.389760792255,0.0,0.0,-0.0428091958165,0.0,0.0,0.0,0,3,1,0.0,0.0025641026441,0.0901015251875,0.0222772285342,-1.0,0.937343358994,-0.998161792755,1.361144426e+14,7,0.00595098221675,-0.00706347264349,-1.90003025532,0.00266741751693,0.000283039553324,0.083290874958,-0.66691672802,-0.0394825898111,-9.76474285126
78502587,0.317096829414,-0.00540693104267,-9.74653720856,-0.0159314237535,-0.0135177085176,-0.147332385182,-0.0268194694072,0.143514186144,0.391523957253,0.0,0.0,-0.388117522001,0.0,0.0,-0.0419825837016,0.0,0.0,0.0,0,3,1,0.0,0.0025641026441,0.0888324901462,0.0247524753213,-1.0,0.937343358994,-0.998161792755,1.361144426e+14,7,0.00590308150277,-0.00698150275275,-1.89697468281,-0.0063251121901,-0.00230364804156,-0.0830857604742,0.317096829414,-0.00540693104267,-9.74653720856
78523753,-0.579064369202,0.0130343288183,-9.92151260376,0.0207572448999,0.0196033716202,0.134774714708,-0.0167282931507,0.126869499683,0.398644804955,0.0,0.0,-0.387644022703,0.0,0.0,-0.0415403395891,0.0,0.0,0.0,0,3,1,0.0,0.0025641026441,0.0901015251875,0.0222772285342,-1.0,0.937343358994,-0.998161792755,1.361144426e+14,7,0.00598200969398,-0.00703472364694,-1.89873015881,0.0104938261211,0.00799486320466,0.0908561497927,-0.579064369202,0.0130343288183,-9.92151260376
78546728,0.0566807314754,-0.324884712696,-9.90932178497,-0.00767468987033,-0.0105673614889,-0.0451028905809,-0.0552582629025,0.112721502781,0.391523957253,0.0,0.0,-0.387828618288,0.0,0.0,-0.0413335859776,0.0,0.0,0.0,0,3,1,0.0,0.0025641026441,0.0888324901462,0.0222772285342,-0.99816006422,0.93483710289,-0.998161792755,1.361144426e+14,7,0.00587739702314,-0.00702152447775,-1.89978289604,-0.00870614591986,-0.00869383662939,-0.0805076062679,0.0566807314754,-0.324884712696,-9.90932178497
78568388,-0.0412725955248,-0.0625286251307,-9.469581604,-0.00166659080423,-0.005156182684,0.0147771639749,-0.0378280431032,0.110224798322,0.399534910917,0.0,0.0,-0.387416511774,0.0,0.0,-0.0411903187633,0.0,0.0,0.0,0,3,1,0.0,0.0025641026441,0.0888324901462,0.0222772285342,-0.99816006422,0.93483710289,-0.998161792755,1.361144426e+14,7,0.0060744555667,-0.00693462742493,-1.89785289764,0.00910352636129,0.00629804981872,0.0582918450236,-0.0412725955248,-0.0625286251307,-9.469581604
78590173,-0.234667688608,-0.0866227895021,-9.64508724213,0.0219956357032,0.0240217298269,0.0785089582205,-0.0341585092247,0.123540557921,0.385293215513,0.0,0.0,-0.383603900671,0.0,0.0,-0.0389213822782,0.0,0.0,0.0,0,3,1,0.0,-0.0,0.0888324901462,0.0222772285342,-1.0,0.937343358994,-0.998161792755,1.361144426e+14,7,0.00574782351032,-0.00716005358845,-1.896007061,-0.00207804050297,0.000288370647468,0.00216368958354,-0.234667688608,-0.0866227895021,-9.64508724213
78610619,-0.0395581834018,0.0674262717366,-9.76197147369,-0.0123655423522,-0.0130082573742,-0.0662633106112,-0.021315196529,0.141849726439,0.388853609562,0.0,0.0,-0.382280319929,0.0,0.0,-0.0383707433939,0.0,0.0,0.0,0,3,1,0.0,-0.0,0.0888324901462,0.0222772285342,-1.0,0.937343358994,-0.998161792755,1.361144426e+14,7,0.00598230725154,-0.00698539754376,-1.89315748215,0.00377338449471,0.00169951375574,-0.00373149290681,-0.0395581834018,0.0674262717366,-9.76197147369
78631854,-0.0457103960216,-0.218582943082,-9.95600509644,0.012052196078,0.0191965568811,0.0665209665895,-0.0414975658059,0.125205025077,0.38440310955,0.0,0.0,-0.379631429911,0.0,0.0,-0.0367742218077,0.0,0.0,0.0,0,3,1,0.0,0.0025641026441,0.0888324901462,0.0272277221084,-1.0,0.937343358994,-0.998161792755,1.361144426e+14,7,0.00587200280279,-0.00704574584961,-1.89351189137,0.000342907267623,0.00647384673357,0.014665171504,-0.0457103960216,-0.218582943082,-9.95600509644
78654409,-0.16676621139,-0.191645234823,-9.72876739502,-0.0153847392648,-0.0146094644442,-0.0439608804882,-0.0479192212224,0.141017496586,0.391523957253,0.0,0.0,-0.381141364574,0.0,0.0,-0.0376944988966,0.0,0.0,0.0,0,3,1,0.0,0.0025641026441,0.0888324901462,0.0272277221084,-1.0,0.937343358994,-0.998161792755,1.361144426e+14,7,0.00591602362692,-0.00704506132752,-1.89284670353,-0.00532543985173,-0.00919394567609,-0.0290230810642,-0.16676621139,-0.191645234823,-9.72876739502
78675225,0.114851415157,-0.00229324121028,-9.53213024139,0.00650527793914,0.00677504530177,0.0168803427368,-0.0203978121281,0.142681956291,0.387073397636,0.0,0.0,-0.381612658501,0.0,0.0,-0.0379454866052,0.0,0.0,0.0,0,3,1,0.0,0.0025641026441,0.0901015251875,0.0247524753213,-1.0,0.937343358994,-0.998161792755,1.361144426e+14,7,0.00591079844162,-0.00692906696349,-1.89162576199,0.00525622302666,0.00909865275025,0.018769364804,0.114851415157,-0.00229324121028,-9.53213024139
78696521,-0.188044056296,-0.202481403947,-9.63689804077,-0.000292697252007,-0.00100827065762,0.0181698016822,-0.00205021142028,0.103566922247,0.399534910917,0.0,0.0,-0.38176715374,0.0,0.0,-0.0380086861551,0.0,0.0,0.0,0,3,1,0.0,0.0025641026441,0.0901015251875,0.0247524753213,-1.0,0.937343358994,-0.998161792755,1.361144426e+14,7,0.00591334374622,-0.00703847920522,-1.88884687424,-0.00172141660005,-0.0060568661429,0.0010400256142,-0.188044056296,-0.202481403947,-9.63689804077
78718571,0.215887233615,-0.0431908629835,-9.79599571228,-0.00337974261492,-0.00514992466196,-0.0161979403347,-0.0203978121281,0.108560331166,0.380842655897,0.0,0.0,-0.382960110903,0.0,0.0,-0.0387142151594,0.0,0.0,0.0,0,3,1,0.0,0.0025641026441,0.0901015251875,0.0247524753213,-1.0,0.937343358994,-0.998161792755,1.361144426e+14,7,0.00597949232906,-0.00674260640517,-1.88259184361,0.00166682933923,0.00485695013776,-0.0169908311218,0.215887233615,-0.0431908629835,-9.79599571228
78739726,-0.475795030594,-0.0309879649431,-9.64943695068,-0.00256638554856,0.00841479934752,0.0237183775753,-0.02223258093,0.0752709358931,0.392414063215,0.0,0.0,-0.382139325142,0.0,0.0,-0.0386922433972,0.0,0.0,0.0,0,3,1,0.0,0.0025641026441,0.0913705602288,0.0222772285342,-1.0,0.937343358994,-0.998161792755,1.361144426e+14,7,0.00607604626566,-0.00693256268278,-1.88305914402,4.41175106971e-05,7.10805252311e-05,0.0363196879625,-0.475795030594,-0.0309879649431,-9.64943695068
78760950,0.318720072508,-0.1935736835,-9.87610626221,0.00418644445017,-0.0042441082187,0.000334542477503,-0.039662797004,0.148507609963,0.394194245338,0.0,0.0,-0.383176296949,0.0,0.0,-0.0391833521426,0.0,0.0,0.0,0,3,1,0.0,0.0025641026441,0.0901015251875,0.0222772285342,-1.0,0.937343358994,-0.998161792755,1.361144426e+14,7,0.00600472232327,-0.00683814845979,-1.88543128967,0.0032213057857,-0.0028141012881,0.000863917171955,0.0953689813614,-0.178649365902,-9.89444923401
78783176,-0.137330040336,0.203367143869,-9.67153263092,-0.0194742828608,-0.00293103628792,-0.111129052937,0.00712359650061,0.111057035625,0.395084351301,0.0,0.0,-0.383098900318,0.0,0.0,-0.0392660163343,0.0,0.0,0.0,0,3,1,0.0,0.0025641026441,0.0901015251875,0.0222772285342,-1.0,0.937343358994,-0.998161792755,1.361144426e+14,7,0.00604709610343,-0.00696311332285,-1.87922906876,-0.0059486059472,0.000311167386826,-0.0220655631274,-0.137330040336,0.203367143869,-9.67153263092
78804332,-0.117707207799,-0.203478366137,-9.59536457062,0.0234172735363,0.00565062370151,0.151078343391,-0.0268194694072,0.118547149003,0.395974457264,0.0,0.0,-0.380953371525,0.0,0.0,-0.038060426712,0.0,0.0,0.0,0,3,1,0.0,0.0025641026441,0.0901015251875,0.0222772285342,-1.0,0.937343358994,-0.998161792755,1.361144426e+14,7,0.00605833856389,-0.00682743499056,-1.87934160233,0.00849537085742,0.000996042275801,0.0462842136621,-0.117707207799,-0.203478366137,-9.59536457062
78826550,0.375781834126,0.106850594282,-9.91523075104,-0.0240318980068,-0.00554212927818,-0.176015049219,-0.0268194694072,0.160991117358,0.385293215513,0.0,0.0,-0.381519317627,0.0,0.0,-0.0384286567569,0.0,0.0,0.0,0,3,1,0.0,0.0025641026441,0.0901015251875,0.0222772285342,-1.0,0.937343358994,-0.998161792755,1.361144426e+14,7,0.00588939478621,-0.00698093743995,-1.87837052345,-0.0188308935612,-0.00537398364395,-0.104291558266,0.375781834126,0.106850594282,-9.91523075104
78847593,-0.385860800743,-0.135549157858,-9.79260063171,0.0275100786239,0.0100297201425,0.176230415702,-0.0158109087497,0.134359613061,0.39063385129,0.0,0.0,-0.380520790815,0.0,0.0,-0.038014523685,0.0,0.0,0.0,0,3,1,0.0,0.0025641026441,0.0913705602288,0.0222772285342,-1.0,0.937343358994,-0.998161792755,1.361144426e+14,7,0.00600034650415,-0.00689512910321,-1.87919712067,0.0158185623586,0.00584900239483,0.110240399837,-0.385860800743,-0.135549157858,-9.79260063171
78868877,0.283329635859,0.0630599409342,-10.1074028015,-0.0255301613361,-0.00692388275638,-0.162441134453,-0.0231499485672,0.125205025077,0.402205199003,0.0,0.0,-0.381627619267,0.0,0.0,-0.0386315360665,0.0,0.0,0.0,0,3,1,0.0,0.0025641026441,0.0901015251875,0.0222772285342,-1.0,0.937343358994,-0.998161792755,1.361144426e+14,7,0.0057838819921,-0.00708953477442,-1.87620949745,-0.0189340040088,-0.00776165444404,-0.107794992626,0.283329635859,0.0630599409342,-10.1074028015
78892160,-0.677028059959,-0.331087678671,-9.47157669067,0.00289308885112,-0.00420859083533,0.0266383290291,-0.0341585092247,0.121043846011,0.391523957253,0.0,0.0,-0.37917599082,0.0,0.0,-0.0374339781702,0.0,0.0,0.0,0,3,1,0.0,0.0025641026441,0.0901015251875,0.0222772285342,-1.0,0.937343358994,-0.998161792755,1.361144426e+14,7,0.00614877836779,-0.00696955248713,-1.87746751308,0.0204712375998,0.00650830380619,0.0811437666416,-0.677028059959,-0.331087678671,-9.47157669067
78913346,0.224803164601,0.117200560868,-9.59882354736,0.00241781515069,0.00483846012503,0.00823076628149,-0.0277368538082,0.146010890603,0.39063385129,0.0,0.0,-0.378374785185,0.0,0.0,-0.0370366722345,0.0,0.0,0.0,0,3,1,0.0,0.0025641026441,0.0901015251875,0.0222772285342,-1.0,0.937343358994,-0.998161792755,1.361144426e+14,7,0.00574986543506,-0.00702123111114,-1.8757661581,-0.0148378750309,-0.00552448583767,-0.054558172822,0.224803164601,0.117200560868,-9.59882354736
78935417,-0.152009963989,-0.0343609303236,-9.75546455383,-0.0262711904943,-0.0141365174204,-0.101867459714,-0.0139761557803,0.135191857815,0.386183291674,0.0,0.0,-0.376246958971,0.0,0.0,-0.0360940694809,0.0,0.0,0.0,0,3,1,0.0,0.0025641026441,0.0913705602288,0.0222772285342,-1.0,0.937343358994,-0.998161792755,1.361144426e+14,7,0.00612157210708,-0.00698405038565,-1.87399888039,-0.000475050939713,-0.00221754959784,-0.0116995126009,-0.152009963989,-0.0343609303236,-9.75546455383
78956698,-0.0481522157788,-0.111768975854,-9.9034280777,0.0301233176142,0.0201704297215,0.113758347929,-0.0681015923619,0.151004299521,0.39063385129,0.0,0.0,-0.374605804682,0.0,0.0,-0.0351071618497,0.0,0.0,0.0,0,3,1,0.0,0.0025641026441,0.0913705602288,0.0222772285342,-1.0,0.937343358994,-0.998161792755,1.361144426e+14,7,0.00590667175129,-0.00692752748728,-1.8780040741,0.00678563350812,0.00700904708356,0.0341770537198,-0.0481522157788,-0.111768975854,-9.9034280777
78978987,0.424445003271,0.0269922278821,-9.75748825073,-0.0358093231916,-0.0217952877283,-0.0753631442785,-0.0277368538082,0.151004299521,0.395974457264,0.0,0.0,-0.374808937311,0.0,0.0,-0.0352726876736,0.0,0.0,0.0,0,3,1,0.0,0.0025641026441,0.0888324901462,0.0222772285342,-1.0,0.937343358994,-0.998161792755,1.361144426e+14,7,0.00596922077239,-0.00700992159545,-1.88013994694,-0.0195245184004,-0.0141277322546,-0.058366227895,0.424445003271,0.0269922278821,-9.75748825073
78999949,-0.438140541315,0.00545455142856,-9.51599884033,0.0346941277385,0.0207154732198,0.0554360933602,-0.0671842098236,0.156829938293,0.385293215513,0.0,0.0,-0.373409003019,0.0,0.0,-0.0345467105508,0.0,0.0,0.0,0,3,1,0.0,0.0025641026441,0.0901015251875,0.0222772285342,-1.0,0.937343358994,-0.998161792755,1.361144426e+14,7,0.00602136133239,-0.00695812702179,-1.87976694107,0.0211278442293,0.0150533942506,0.0608773678541,-0.438140541315,0.00545455142856,-9.51599884033
79021368,0.252588152885,-0.174621537328,-9.63236618042,-0.0368904732168,-0.0214185118675,-0.00994629878551,-0.0424149334431,0.127701729536,0.397754698992,0.0,0.0,-0.371605783701,0.0,0.0,-0.0338121801615,0.0,0.0,0.0,0,3,1,0.0,0.0025641026441,0.0888324901462,0.0222772285342,-0.99816006422,0.937343358994,-1.0,1.361144426e+14,7,0.00600183522329,-0.00697770016268,-1.87970614433,-0.0215120986104,-0.0152039946988,-0.036923058331,0.252588152885,-0.174621537328,-9.63236618042
79042967,0.236974239349,-0.334530353546,-9.71069431305,0.0241826996207,0.0122977159917,-0.0516841188073,-0.012141388841,0.0844255238771,0.387963503599,0.0,0.0,-0.369596928358,0.0,0.0,-0.0328230559826,0.0,0.0,0.0,0,3,1,0.0,-0.0,0.0888324901462,0.0222772285342,-1.0,0.937343358994,-0.998161792755,1.361144426e+14,7,0.0060634049587,-0.00693960068747,-1.87907636166,0.0222699251026,0.0141242090613,-0.00179893895984,0.236974239349,-0.334530353546,-9.71069431305
79063604,-0.518128156662,0.295371174812,-9.87095928192,-0.0181492343545,-0.00869673117995,0.0635896846652,-0.0479192212224,0.152668789029,0.387963503599,0.0,0.0,-0.368507623672,0.0,0.0,-0.0320650115609,0.0,0.0,0.0,0,3,1,0.0,0.0025641026441,0.0901015251875,0.0222772285342,-1.0,0.937343358994,-0.998161792755,1.361144426e+14,7,0.00596130173653,-0.00698718009517,-1.88202166557,-0.0152211384848,-0.00828081183136,0.0264993105084,-0.518128156662,0.295371174812,-9.87095928192
79084865,0.29728153348,-0.191963806748,-9.68757534027,0.0136291598901,0.00579145969823,-0.043369922787,-0.0506713576615,0.141017496586,0.379952549934,0.0,0.0,-0.36909994483,0.0,0.0,-0.032326374203,0.0,0.0,0.0,0,3,1,0.0,0.0025641026441,0.0901015251875,0.0222772285342,-1.0,0.937343358994,-0.998161792755,1.361144426e+14,7,0.00602153409272,-0.00689061917365,-1.88242590427,0.0107501363382,0.00828928966075,-0.0305939298123,0.29728153348,-0.191963806748,-9.68757534027
79107170,-0.439074069262,0.290834456682,-9.62166881561,-0.0150985121727,-0.000574787671212,-0.0277267619967,-0.0414975658059,0.117714904249,0.393304169178,0.0,0.0,-0.368807256222,0.0,0.0,-0.0321653410792,0.0,0.0,0.0,0,3,1,0.0,0.0025641026441,0.0901015251875,0.0222772285342,-1.0,0.937343358994,-0.998161792755,1.361144426e+14,7,0.00592076405883,-0.00704316236079,-1.88017141819,-0.0143721029162,-0.00630046287552,0.0137701239437,-0.439074069262,0.290834456682,-9.62166881561
79128219,0.401164650917,-0.447077184916,-9.63366889954,0.0268184021115,0.014271331951,0.0659320801497,-0.0625973045826,0.121043846011,0.379062443972,0.0,0.0,-0.369007110596,0.0,0.0,-0.0323005095124,0.0,0.0,0.0,0,3,1,0.0,0.0025641026441,0.0901015251875,0.0222772285342,-1.0,0.937343358994,-0.998161792755,1.361144426e+14,7,0.00610409351066,-0.00677471840754,-1.88293290138,0.0201766435057,0.012112271972,0.00580070912838,0.401164650917,-0.447077184916,-9.63366889954
79149321,-0.308994650841,0.548584699631,-9.78596305847,-0.0276892650872,-0.00838039442897,-0.088182926178,-0.0359932780266,0.126869499683,0.394194245338,0.0,0.0,-0.36819767952,0.0,0.0,-0.0317221321166,0.0,0.0,0.0,0,3,1,0.0,-0.0,0.0888324901462,0.0222772285342,-1.0,0.937343358994,-0.998161792755,1.361144426e+14,7,0.00586892291903,-0.00707466434687,-1.88059389591,-0.0221749674529,-0.0109501741827,-0.0188687331975,-0.308994650841,0.548584699631,-9.78596305847
79172317,0.00353352352977,-0.418189316988,-9.73704624176,0.00854159612209,-0.00246813846752,0.108342163265,-0.0295716207474,0.131862893701,0.393304169178,0.0,0.0,-0.371399670839,0.0,0.0,-0.0332884341478,0.0,0.0,0.0,0,3,1,0.0,0.0025641026441,0.0901015251875,0.0222772285342,-1.0,0.937343358994,-0.998161792755,1.361144426e+14,7,0.00622661551461,-0.00673080608249,-1.8790268898,0.0179679710418,0.00732454704121,0.0683526024222,0.00353352352977,-0.418189316988,-9.73704624176
79193730,0.374525517225,0.298235714436,-9.9930934906,-0.00656600343063,0.00801075343043,-0.102118439972,-0.00113282771781,0.150172069669,0.378172367811,0.0,0.0,-0.373515427113,0.0,0.0,-0.0341816581786,0.0,0.0,0.0,0,3,1,0.0,0.0025641026441,0.0901015251875,0.0222772285342,-1.0,0.937343358994,-0.998161792755,1.361144426e+14,7,0.00577905401587,-0.00704839965329,-1.8774138689,-0.0184963420033,-0.00426201801747,-0.0796003937721,0.374525517225,0.298235714436,-9.9930934906
79215546,-0.901828169823,-0.183313444257,-9.55285167694,-0.0188831612468,-0.0157248396426,-0.00337995123118,-0.0460844524205,0.098573513329,0.389743715525,0.0,0.0,-0.37170290947,0.0,0.0,-0.0333051607013,0.0,0.0,0.0,0,3,1,0.0,-0.0,0.0888324901462,0.0222772285342,-1.0,0.937343358994,-0.998161792755,1.361144426e+14,7,0.00620825681835,-0.00689254561439,-1.87991309166,0.00632697110996,-0.00306266755797,0.056725628674,-0.901828169823,-0.183313444257,-9.55285167694
79236149,0.639692246914,-0.202834457159,-9.80034065247,0.016049284488,0.0189058277756,0.0337630175054,0.0144626367837,0.132695138454,0.386183291674,0.0,0.0,-0.368205189705,0.0,0.0,-0.0313984639943,0.0,0.0,0.0,0,3,1,0.0,0.0025641026441,0.0901015251875,0.0222772285342,-1.0,0.937343358994,-0.998161792755,1.361144426e+14,7,0.00579965440556,-0.00684070261195,-1.87509012222,-0.00697388546541,0.00535284727812,-0.0393476560712,0.639692246914,-0.202834457159,-9.80034065247
79257447,-0.788671731949,-0.0334092080593,-9.64194583893,-0.02672297135,-0.0172578226775,-0.0643323510885,-0.0488366037607,0.170145705342,0.397754698992,0.0,0.0,-0.365029036999,0.0,0.0,-0.0298601333052,0.0,0.0,0.0,0,3,1,0.0,-0.0,0.0888324901462,0.0222772285342,-1.0,0.937343358994,-0.998161792755,1.361144426e+14,7,0.00605677673593,-0.0070257964544,-1.87138533592,-0.00148793368135,-0.00761073315516,0.0261210054159,-0.788671731949,-0.0334092080593,-9.64194583893
79279727,-0.00282279402018,-0.336956083775,-9.85978889465,0.0370489731431,0.00808310322464,0.13476151228,0.00161930872127,0.132695138454,0.374611914158,0.0,0.0,-0.362533062696,0.0,0.0,-0.028417179361,0.0,0.0,0.0,0,3,1,0.0,0.0025641026441,0.100253805518,0.0222772285342,-1.0,0.937343358994,-0.998161792755,1.361144426e+14,7,0.00591484969482,-0.00677944719791,-1.87220168114,0.0175787676126,0.0101306783035,0.0434479676187,-0.00282279402018,-0.336956083775,-9.85978889465
79300538,-0.0267987977713,0.150951445103,-9.60834121704,-0.0368874631822,-0.00948424823582,-0.132960319519,-0.0038849641569,0.0960768088698,0.396864563227,0.0,0.0,-0.361461013556,0.0,0.0,-0.0279665589333,0.0,0.0,0.0,0,3,1,0.0,0.0025641026441,0.124365478754,0.0222772285342,-1.0,0.937343358994,-0.998161792755,1.361144426e+14,7,0.00597994215786,-0.00704006431624,-1.86777353287,-0.0145607907325,-0.00693223485723,-0.0494844391942,-0.0267987977713,0.150951445103,-9.60834121704
79321906,-0.224549174309,-0.042326964438,-9.83912372589,0.0489976853132,0.0133238015696,0.136547923088,-0.0286542363465,0.120211623609,0.399534910917,0.0,0.0,-0.361277341843,0.0,0.0,-0.0277924723923,0.0,0.0,0.0,0,3,1,0.0,0.0025641026441,0.152284264565,0.0247524753213,-1.0,0.93483710289,-0.996323525906,1.361144426e+14,7,0.00597608322278,-0.00673563731834,-1.8654460907,0.0236202031374,0.0121357217431,0.0669032111764,-0.224549174309,-0.042326964438,-9.83912372589
79343624,0.590597271919,0.543545365334,-10.0053882599,-0.0293894745409,-0.00522015476599,-0.0194594990462,-0.0515887401998,0.14517866075,0.421787559986,0.0,0.0,-0.365494668484,0.0,0.0,-0.0299834124744,0.0,0.0,0.0,0,3,1,0.0,-0.0,0.164974614978,0.0222772285342,-1.0,0.937343358994,-0.998161792755,1.361144426e+14,7,0.00586874177679,-0.00696906493977,-1.86635613441,-0.0282499734312,-0.0117032025009,-0.0506076440215,0.590597271919,0.543545365334,-10.0053882599
79364290,-0.432205498219,-0.683016359806,-9.54172897339,0.0087305046618,0.00263282307424,-0.0460277795792,0.000701939861756,0.131862893701,0.428018301725,0.0,0.0,-0.360678613186,0.0,0.0,-0.0279485378414,0.0,0.0,0.0,0,3,1,0.0,0.0025641026441,0.168781727552,0.0198019798845,-1.0,0.937343358994,-0.998161792755,1.361144426e+14,7,0.00629493966699,-0.00688492879272,-1.8632928133,0.025141870603,0.011511660181,0.0173007585108,-0.432205498219,-0.683016359806,-9.54172897339
79385344,-0.424945294857,0.552385091782,-9.91141319275,0.0262117795646,0.012567833066,0.0750708729029,-0.0240673329681,0.13685631752,0.399534910917,0.0,0.0,-0.359256774187,0.0,0.0,-0.0270250216126,0.0,0.0,0.0,0,3,1,0.0,0.0025641026441,0.167512685061,0.0222772285342,-1.0,0.937343358994,-0.998161792755,1.361144426e+14,7,0.00596604403108,-0.00685287080705,-1.86215674877,-0.0010599141242,-0.000320551305776,0.0302067436278,-0.424945294857,0.552385091782,-9.91141319275
79407947,0.454032242298,0.799583137035,-10.0763845444,-0.0356079526246,-0.0359657518566,0.0688563659787,-0.0185630451888,0.154333248734,0.40042501688,0.0,0.0,-0.357787668705,0.0,0.0,-0.02675020881,0.0,0.0,0.0,0,3,1,0.0,0.0025641026441,0.167512685061,0.0222772285342,-1.0,0.937343358994,-0.998161792755,1.361144426e+14,7,0.00600293977186,-0.00680619152263,-1.85964417458,-0.0280744824558,-0.0201937500387,0.0157856587321,0.454032242298,0.799583137035,-10.0763845444
79429762,0.750468611717,-0.901408672333,-9.8404417038,0.0189090035856,0.0405961796641,-0.109994001687,-0.0369106605649,0.136024072766,0.40042501688,0.0,0.0,-0.355994403362,0.0,0.0,-0.0260228831321,0.0,0.0,0.0,0,3,1,0.0,0.0025641026441,0.167512685061,0.0222772285342,-1.0,0.937343358994,-0.998161792755,1.361144426e+14,7,0.00608418928459,-0.00705225579441,-1.86194992065,0.0157338120043,0.0203244108707,-0.0645526796579,0.750468611717,-0.901408672333,-9.8404417038
79451745,-1.19046878815,0.830323040485,-9.98288822174,0.0122415628284,0.0110038872808,-0.0507551655173,-0.0589277818799,0.125205025077,0.40042501688,0.0,0.0,-0.352339327335,0.0,0.0,-0.0244361907244,0.0,0.0,0.0,0,3,1,0.0,0.0025641026441,0.168781727552,0.0198019798845,-1.0,0.937343358994,-0.998161792755,1.361144426e+14,7,0.00591348204762,-0.00726499781013,-1.86606359482,0.000919424579479,-0.00548657169566,0.0333995856345,-1.19046878815,0.830323040485,-9.98288822174
79473131,-0.325859725475,-0.413486689329,-9.5036277771,-0.00271554873325,-0.0102605763823,0.0810630843043,-0.0460844524205,0.131862893701,0.406655758619,0.0,0.0,-0.352206349373,0.0,0.0,-0.024741448462,0.0,0.0,0.0,0,3,1,0.0,0.0025641026441,0.167512685061,0.0222772285342,-1.0,0.937343358994,-0.998161792755,1.361144426e+14,7,0.00646499916911,-0.00660695880651,-1.86810052395,0.0136797241867,0.00978690385818,0.0149916540831,-0.325859725475,-0.413486689329,-9.5036277771
79494390,1.24173545837,0.0460606329143,-10.1385622025,0.0227479822934,0.0213742665946,-0.0109179513529,-0.044249702245,0.131030678749,0.393304169178,0.0,0.0,-0.353319942951,0.0,0.0,-0.0251285359263,0.0,0.0,0.0,0,3,1,0.0,-0.0,0.167512685061,0.0222772285342,-1.0,0.937343358994,-0.998161792755,1.361144426e+14,7,0.00609645294026,-0.00685632880777,-1.87007665634,-0.000817248830572,0.00234659085982,-0.019457295537,1.24173545837,0.0460606329143,-10.1385622025
79516534,-0.0957413166761,0.514723360538,-9.67426204681,-0.0300816874951,-0.00964909605682,-0.0702921748161,-0.0717710927129,0.123540557921,0.408435970545,0.0,0.0,-0.352527290583,0.0,0.0,-0.0252710860223,0.0,0.0,0.0,0,3,1,0.0,0.0025641026441,0.167512685061,0.0222772285342,-1.0,0.937343358994,-0.998161792755,1.361144426e+14,7,0.00624484336004,-0.00709966709837,-1.87346112728,-0.0170611925423,-0.0109106758609,-0.0315596871078,-0.0957413166761,0.514723360538,-9.67426204681
79537796,-1.10312366486,-0.990969121456,-9.25688457489,0.0183515064418,-0.000786627992056,0.041626367718,0.00528882909566,0.141849726439,0.395084351301,0.0,0.0,-0.350079447031,0.0,0.0,-0.023939024657,0.0,0.0,0.0,0,3,1,0.0,0.0025641026441,0.167512685061,0.0222772285342,-1.0,0.937343358994,-0.998161792755,1.361144426e+14,7,0.00666465703398,-0.00681540789083,-1.86596250534,0.02813067846,0.00621001468971,0.0556023716927,-1.10312366486,-0.990969121456,-9.25688457489
79560259,-0.169188171625,0.664894640446,-10.2523841858,0.0312805660069,-0.0060162153095,0.0752739459276,-0.0332411415875,0.155997723341,0.40042501688,0.0,0.0,-0.349987447262,0.0,0.0,-0.0237251184881,0.0,0.0,0.0,0,3,1,0.0,-0.0,0.167512685061,0.0222772285342,-1.0,0.93483710289,-0.996323525906,1.361144426e+14,7,0.00594215840101,-0.00705401645973,-1.86322486401,-0.00966121628881,-0.0144370980561,0.0330511853099,-0.169188171625,0.664894640446,-10.2523841858
79581127,1.08251559734,0.0222861617804,-9.50958824158,-0.0432150810957,-0.00745785934851,-0.0126679940149,-0.0543408766389,0.13685631752,0.393304169178,0.0,0.0,-0.349027007818,0.0,0.0,-0.0238164365292,0.0,0.0,0.0,0,3,1,0.0,-0.0,0.167512685061,0.0222772285342,-1.0,0.93483710289,-0.996323525906,1.361144426e+14,7,0.00635070959106,-0.00705837458372,-1.86331391335,-0.0124825797975,0.00493862433359,-0.0337590910494,1.08251559734,0.0222861617804,-9.50958824158
79602274,-0.976280808449,-0.97060406208,-9.58740234375,0.032288402319,0.0262697935104,-0.0701641887426,-0.0460844524205,0.126869499683,0.408435970545,0.0,0.0,-0.350658684969,0.0,0.0,-0.0245602466166,0.0,0.0,0.0,0,3,1,0.0,0.0025641026441,0.168781727552,0.0198019798845,-1.0,0.937343358994,-0.998161792755,1.361144426e+14,7,0.00633033830673,-0.00721944030374,-1.86295223236,0.0251159053296,0.00878553278744,0.00733044371009,-0.976280808449,-0.97060406208,-9.58740234375
79624360,-1.64536845684,0.624727725983,-9.68987846375,0.00349375978112,-0.0270271040499,0.0688439011574,-0.0460844524205,0.121876083314,0.403095304966,0.0,0.0,-0.352228581905,0.0,0.0,-0.0256638210267,0.0,0.0,0.0,0,3,1,0.0,-0.0,0.167512685061,0.0198019798845,-0.99816006422,0.93483710289,-0.998161792755,1.361144426e+14,7,0.00592088839039,-0.00725310714915,-1.86315703392,-0.0158136133105,-0.0234146341681,0.0528447329998,-1.64536845684,0.624727725983,-9.68987846375
79645640,1.13739943504,-0.276146918535,-9.92604732513,0.00664773397148,0.010509355925,-0.00134683633223,-0.0525061264634,0.121043846011,0.40042501688,0.0,0.0,-0.355993777514,0.0,0.0,-0.0276367459446,0.0,0.0,0.0,0,3,1,0.0,0.0025641026441,0.167512685061,0.0222772285342,-1.0,0.937343358994,-0.998161792755,1.361144426e+14,7,0.00635105324909,-0.00685234135017,-1.86356782913,0.01575980708,0.022065134719,-0.03870049119,1.13739943504,-0.276146918535,-9.92604732513
79666868,-0.093897588551,-0.136024445295,-9.81177330017,0.0125853801146,0.0182385332882,-0.0398750305176,-0.0671842098236,0.125205025077,0.395084351301,0.0,0.0,-0.360274195671,0.0,0.0,-0.0298510510474,0.0,0.0,0.0,0,3,1,0.0,0.0025641026441,0.167512685061,0.0222772285342,-1.0,0.937343358994,-0.998161792755,1.361144426e+14,7,0.00640170322731,-0.00721874088049,-1.86710870266,0.0125405220315,0.00523493252695,0.00951014086604,-0.093897588551,-0.136024445295,-9.81177330017
79690448,-1.64433813095,0.0612285584211,-9.40499591827,-0.021782528609,-0.0199323259294,0.014723838307,-0.0038849641569,0.150172069669,0.404875546694,0.0,0.0,-0.362197369337,0.0,0.0,-0.0304996799678,0.0,0.0,0.0,0,3,1,0.0,0.0025641026441,0.168781727552,0.0198019798845,-1.0,0.937343358994,-0.998161792755,1.361144426e+14,7,0.00640492513776,-0.00723879458383,-1.86528110504,-0.0142021253705,-0.0165218878537,0.0135728344321,-1.64433813095,0.0612285584211,-9.40499591827
79712558,-1.30239713192,-0.592524766922,-9.50220966339,0.013427298516,-0.00457986490801,-0.0136359939352,-0.0103066358715,0.155165478587,0.40042501688,0.0,0.0,-0.363483399153,0.0,0.0,-0.030697837472,0.0,0.0,0.0,0,3,1,0.0,0.0025641026441,0.167512685061,0.0222772285342,-1.0,0.937343358994,-0.998161792755,1.361144426e+14,7,0.006505261641,-0.00696040689945,-1.85719680786,0.0169837288558,0.00500590121374,0.00706719513983,-1.30239713192,-0.592524766922,-9.50220966339
79733356,1.35344612598,0.572789907455,-10.0479307175,0.0127652985975,0.00157888862304,0.0720613896847,-0.0525061264634,0.13685631752,0.405765652657,0.0,0.0,-0.361760795116,0.0,0.0,-0.0294774640352,0.0,0.0,0.0,0,3,1,0.0,0.0025641026441,0.168781727552,0.0198019798845,-1.0,0.937343358994,-0.998161792755,1.361144426e+14,7,0.00622759619728,-0.00682313553989,-1.85847508907,-0.00507026957348,0.00333917443641,0.0184610821307,1.35344612598,0.572789907455,-10.0479307175
79754504,-0.261123090982,-0.254581987858,-9.6653881073,-0.0401266887784,0.00225305184722,-0.0954870730639,-0.0295716207474,0.122708320618,0.404875546694,0.0,0.0,-0.360957175493,0.0,0.0,-0.0289211720228,0.0,0.0,0.0,0,3,1,0.0,0.0051282052882,0.168781727552,0.0198019798845,-1.0,0.937343358994,-0.998161792755,1.361144426e+14,7,0.00652024103329,-0.00724828150123,-1.85869324207,-0.0111675411463,-0.00298277847469,-0.0462406352162,-0.261123090982,-0.254581987858,-9.6653881073
79776604,-1.54470789433,-0.790224254131,-9.26082038879,0.0339644178748,0.0133265126497,-0.0205642022192,-0.044249702245,0.146843135357,0.415556818247,0.0,0.0,-0.360159248114,0.0,0.0,-0.0284002535045,0.0,0.0,0.0,0,3,1,0.0,0.0025641026441,0.167512685061,0.0222772285342,-1.0,0.937343358994,-0.998161792755,1.361144426e+14,7,0.0064255441539,-0.00727648800239,-1.86037313938,0.0258536282927,-0.000112132715003,0.0399374477565,-1.54470789433,-0.790224254131,-9.26082038879
79797975,0.675407648087,0.715128362179,-9.95792579651,-0.0230576917529,-0.0340730845928,0.113764345646,-0.02223258093,0.128533959389,0.413776606321,0.0,0.0,-0.361372739077,0.0,0.0,-0.0289507117122,0.0,0.0,0.0,0,3,1,0.0,0.0051282052882,0.168781727552,0.0198019798845,-1.0,0.937343358994,-0.998161792755,1.361144426e+14,7,0.00607547163963,-0.00696886656806,-1.85864186287,-0.0285177007318,-0.0149203371257,0.0301648098975,0.675407648087,0.715128362179,-9.95792579651
79819233,0.613694667816,-0.437787681818,-9.73475837708,-0.00602286448702,0.0304665248841,-0.135474681854,-0.0359932780266,0.11521820724,0.395974457264,0.0,0.0,-0.362496107817,0.0,0.0,-0.0297091752291,0.0,0.0,0.0,0,3,1,0.0,0.0051282052882,0.168781727552,0.0198019798845,-1.0,0.937343358994,-0.998161792755,1.361144426e+14,7,0.0061455485411,-0.00742769334465,-1.85990333557,-0.000855347549077,0.0118998838589,-0.0652356445789,0.613694667816,-0.437787681818,-9.73475837708
79841439,-0.853027820587,-0.693672895432,-9.60675621033,0.0402133129537,0.0343082919717,0.0167845971882,0.0144626367837,0.13685631752,0.402205199003,0.0,0.0,-0.358036100864,0.0,0.0,-0.0275407880545,0.0,0.0,0.0,0,3,1,0.0,0.0025641026441,0.167512685061,0.0198019798845,-0.99816006422,0.93483710289,-0.998161792755,1.361144426e+14,7,0.00641219969839,-0.00728062540293,-1.85496759415,0.0359264835715,0.0196453351527,0.0489950142801,-0.853027820587,-0.693672895432,-9.60675621033
79862574,-0.972051143646,0.581170201302,-9.66904640198,-0.022887667641,-0.03478211537,0.0164954233915,-0.0259020999074,0.159326657653,0.40131509304,0.0,0.0,-0.356247872114,0.0,0.0,-0.0268387123942,0.0,0.0,0.0,0,3,1,0.0,0.0025641026441,0.167512685061,0.0198019798845,-0.99816006422,0.93483710289,-0.998161792755,1.361144426e+14,7,0.00622010184452,-0.00703947339207,-1.85249149799,-0.0226380955428,-0.0200892481953,-0.0143148284405,-0.972051143646,0.581170201302,-9.66904640198
79885149,0.724605381489,-0.0111099826172,-9.76514911652,0.0239584110677,0.00825255550444,-0.00771417701617,-0.0717710927129,0.132695138454,0.409326046705,0.0,0.0,-0.351432591677,0.0,0.0,-0.0245374310762,0.0,0.0,0.0,0,3,1,0.0,0.0051282052882,0.168781727552,0.0198019798845,-1.0,0.937343358994,-0.998161792755,1.361144426e+14,7,0.00634556869045,-0.00690739601851,-1.85673999786,0.018442530185,0.014666265808,0.00390224577859,0.724605381489,-0.0111099826172,-9.76514911652
79905853,0.951945483685,0.0183681324124,-9.90063476562,-0.0146152209491,0.0112533122301,0.0348657593131,-0.0378280431032,0.133527368307,0.41644692421,0.0,0.0,-0.34699010849,0.0,0.0,-0.0226129665971,0.0,0.0,0.0,0,3,1,0.0,0.0051282052882,0.168781727552,0.0198019798845,-1.0,0.937343358994,-0.998161792755,1.361144426e+14,7,0.00645775767043,-0.0071008214727,-1.85757553577,-0.00716828648001,0.00426876777783,0.00638130027801,0.951945483685,0.0183681324124,-9.90063476562
79927217,-1.81877112389,-0.386130660772,-9.62725448608,-0.00541432760656,-0.00990494526923,-0.0779046118259,-0.0277368538082,0.138520792127,0.412886500359,0.0,0.0,-0.344427376986,0.0,0.0,-0.0216290522367,0.0,0.0,0.0,0,3,1,0.0,0.0051282052882,0.168781727552,0.0198019798845,-1.0,0.937343358994,-0.998161792755,1.361144426e+14,7,0.00634938571602,-0.00740189570934,-1.85793018341,-0.00282271113247,-0.0159606672823,-0.0287512522191,-1.81877112389,-0.386130660772,-9.62725448608
79948882,-0.697710156441,0.0592193640769,-9.55160617828,0.0211529843509,-0.0201551988721,0.0805950984359,-0.01122400444,0.125205025077,0.404875546694,0.0,0.0,-0.343167930841,0.0,0.0,-0.0211692322046,0.0,0.0,0.0,0,3,1,0.0,0.0025641026441,0.168781727552,0.0198019798845,-1.0,0.937343358994,-0.998161792755,1.361144426e+14,7,0.00637674797326,-0.00704312324524,-1.85619115829,0.0143413133919,-0.00458666170016,0.0744708180428,-0.697710156441,0.0592193640769,-9.55160617828
79969710,1.81170225143,0.476735979319,-10.1313495636,-0.0429182648659,0.00110418268014,-0.00418741442263,-0.02223258093,0.120211623609,0.413776606321,0.0,0.0,-0.345424681902,0.0,0.0,-0.0226647350937,0.0,0.0,0.0,0,3,1,0.0,0.0025641026441,0.167512685061,0.0222772285342,-1.0,0.937343358994,-0.998161792755,1.361144426e+14,7,0.00614123046398,-0.00721194315702,-1.85542190075,-0.0328989997506,0.000150253923493,-0.0464725233614,1.81170225143,0.476735979319,-10.1313495636
79990668,-1.60361242294,-0.856070399284,-9.23649787903,0.0135308625177,0.0122183486819,-0.0640317797661,-0.0231499485672,0.156829938293,0.393304169178,0.0,0.0,-0.344521611929,0.0,0.0,-0.0228146929294,0.0,0.0,0.0,0,3,1,0.0,-0.0,0.167512685061,0.0198019798845,-0.99816006422,0.93483710289,-0.998161792755,1.361144426e+14,7,0.00618141377345,-0.00767423864454,-1.85485804081,0.0153479073197,-0.00279205408879,0.0116908587515,-1.60361242294,-0.856070399284,-9.23649787903
80013677,-1.68721318245,-0.0865931436419,-9.76586723328,0.0380336008966,-0.0075709191151,0.0981262177229,-0.0745232477784,0.111057035625,0.402205199003,0.0,0.0,-0.345129698515,0.0,0.0,-0.023463267833,0.0,0.0,0.0,0,3,1,0.0,-0.0,0.167512685061,0.0222772285342,-1.0,0.937343358994,-0.998161792755,1.361144426e+14,7,0.00606902036816,-0.00735537009314,-1.85570013523,0.0160046219826,-0.00472464738414,0.0544010512531,-1.68721318245,-0.0865931436419,-9.76586723328
80035067,1.65051245689,0.685183405876,-9.83476924896,-0.0270254742354,-0.0131105501205,-0.0347525142133,-0.0479192212224,0.1043991521,0.399534910917,0.0,0.0,-0.346291601658,0.0,0.0,-0.0241549182683,0.0,0.0,0.0,0,3,1,0.0,0.0025641026441,0.168781727552,0.0198019798845,-1.0,0.937343358994,-0.998161792755,1.361144426e+14,7,0.00608239881694,-0.00711172865704,-1.85988509655,-0.0174741446972,0.00072123267455,-0.0381811149418,1.65051245689,0.685183405876,-9.83476924896
80057307,1.21140253544,-0.02212465927,-9.85391044617,-0.0163699444383,0.0161431413144,-0.0405897423625,-0.0103066358715,0.119379386306,0.38440310955,0.0,0.0,-0.345570296049,0.0,0.0,-0.0241705272347,0.0,0.0,0.0,0,3,1,0.0,0.0025641026441,0.167512685061,0.0222772285342,-1.0,0.937343358994,-0.998161792755,1.361144426e+14,7,0.00631241779774,-0.00734883081168,-1.85872578621,0.00212664529681,0.0125875817612,0.00445969961584,1.21140253544,-0.02212465927,-9.85391044617
80078421,-1.44955682755,-0.845592260361,-9.8996925354,0.0135333556682,0.00445153424516,0.0295646414161,-0.0515887401998,0.151836544275,0.395084351301,0.0,0.0,-0.34886944294,0.0,0.0,-0.0259713809937,0.0,0.0,0.0,0,3,1,0.0,-0.0,0.167512685061,0.0198019798845,-1.0,0.937343358994,-0.998161792755,1.361144426e+14,7,0.00626252917573,-0.00755323888734,-1.86025846004,0.00887227524072,-0.00434647733346,-0.0055825933814,-1.44955682755,-0.845592260361,-9.8996925354
80099568,-0.198618531227,0.563950240612,-9.40112876892,0.00374932494015,-0.0237853862345,-0.0490399971604,-0.00847186800092,0.125205025077,0.404875546694,0.0,0.0,-0.346806645393,0.0,0.0,-0.0252620317042,0.0,0.0,0.0,0,3,1,0.0,0.0025641026441,0.167512685061,0.0222772285342,-1.0,0.937343358994,-0.998161792755,1.361144426e+14,7,0.00612731929868,-0.00723174354061,-1.85492813587,-0.00205683195964,-0.00721402699128,-0.00288773700595,-0.198618531227,0.563950240612,-9.40112876892
80121412,1.48979878426,0.0944075956941,-9.97877120972,0.000589855073486,-0.0034607052803,0.0751886293292,-0.0754406303167,0.117714904249,0.396864563227,0.0,0.0,-0.348807245493,0.0,0.0,-0.0261272750795,0.0,0.0,0.0,0,3,1,0.0,0.0025641026441,0.167512685061,0.0222772285342,-1.0,0.937343358994,-0.998161792755,1.361144426e+14,7,0.0064216288738,-0.00701922504231,-1.85963559151,0.00642104679719,0.0109734265134,0.0404142439365,1.48979878426,0.0944075956941,-9.97877120972
80141986,-0.0929552912712,-0.226141527295,-9.64570045471,-0.0124910324812,0.0164047349244,-0.0656830817461,-0.0552582629025,0.167649000883,0.40131509304,0.0,0.0,-0.350470870733,0.0,0.0,-0.0269737634808,0.0,0.0,0.0,0,3,1,0.0,-0.0,0.17512691021,0.0198019798845,-1.0,0.937343358994,-0.998161792755,1.361144426e+14,7,0.0062925782986,-0.00761571293697,-1.86099374294,-0.0112286061049,-0.00271453429013,-0.0465658083558,-0.0929552912712,-0.226141527295,-9.64570045471
80163181,-1.71863794327,-0.175917357206,-9.49488830566,0.0196209326386,-0.0149951921776,0.0467365197837,-0.0139761557803,0.121043846011,0.411106288433,0.0,0.0,-0.34874150157,0.0,0.0,-0.0261298231781,0.0,0.0,0.0,0,3,1,0.0,-0.0,0.203045681119,0.0198019798845,-1.0,0.937343358994,-0.998161792755,1.361144426e+14,7,0.00636926852167,-0.00729724997655,-1.86105406284,0.0154085634276,-0.00511351134628,0.0557691082358,-1.71863794327,-0.175917357206,-9.49488830566
80185357,0.848185837269,0.58642745018,-9.92691421509,0.0166296549141,-0.0131849832833,0.0676104873419,-0.0240673329681,0.130198433995,0.417337030172,0.0,0.0,-0.347024530172,0.0,0.0,-0.0250898748636,0.0,0.0,0.0,0,3,1,0.0,0.0025641026441,0.224619284272,0.0198019798845,-1.0,0.937343358994,-0.998161792755,1.361144426e+14,7,0.00613198336214,-0.00702224392444,-1.8582161665,-0.00419464753941,0.00077177392086,0.00368489697576,0.848185837269,0.58642745018,-9.92691421509
80206413,1.37204015255,0.777731657028,-10.1846837997,-0.0332673899829,0.0176975559443,-0.0894348025322,-0.0369106605649,0.146843135357,0.432468831539,0.0,0.0,-0.347322851419,0.0,0.0,-0.0252899844199,0.0,0.0,0.0,0,3,1,0.0,0.0025641026441,0.230964466929,0.0198019798845,-1.0,0.937343358994,-0.998161792755,1.361144426e+14,7,0.00628379546106,-0.00745461694896,-1.8584600687,-0.0142018422484,0.00594211323187,-0.0284577943385,1.37204015255,0.777731657028,-10.1846837997
80227609,-1.49518847466,-1.7183098793,-9.25001049042,0.0293149519712,0.0158712286502,0.0635353922844,-0.0378280431032,0.113553732634,0.425347983837,0.0,0.0,-0.34796744585,0.0,0.0,-0.0257356856018,0.0,0.0,0.0,0,3,1,0.0,0.0025641026441,0.244923859835,0.0198019798845,-1.0,0.937343358994,-0.998161792755,1.361144426e+14,7,0.00682761333883,-0.00732790119946,-1.85978734493,0.0403436161578,0.0137714892626,0.0441010296345,-1.49518847466,-1.7183098793,-9.25001049042
80249520,-1.14804077148,-1.21609592438,-9.82152366638,0.0402262173593,0.0121299466118,0.0378156155348,-0.0506713576615,0.143514186144,0.422677665949,0.0,0.0,-0.347259998322,0.0,0.0,-0.0250173266977,0.0,0.0,0.0,0,3,1,0.0,0.0025641026441,0.244923859835,0.0198019798845,-1.0,0.937343358994,-0.998161792755,1.361144426e+14,7,0.00648674508557,-0.00737506011501,-1.86043262482,0.00958663225174,-0.00313368183561,-0.0142909232527,-1.14804077148,-1.21609592438,-9.82152366638
80271128,-0.807592451572,1.37663519382,-9.87240219116,0.0145499510691,-0.00793648324907,-0.0586496517062,-0.0323237553239,0.108560331166,0.410216152668,0.0,0.0,-0.344196647406,0.0,0.0,-0.0234301853925,0.0,0.0,0.0,0,3,1,0.0,-0.0,0.258883237839,0.0222772285342,-1.0,0.937343358994,-0.998161792755,1.361144426e+14,7,0.00609670812264,-0.00741529138759,-1.86042821407,-0.00995516963303,-0.00766504602507,-0.0128590222448,-0.807592451572,1.37663519382,-9.87240219116
80292324,-1.05179035664,1.1123726368,-9.90506362915,-0.0169785860926,-0.0152564514428,0.0041915033944,-0.0552582629025,0.109392568469,0.422677665949,0.0,0.0,-0.3434702456,0.0,0.0,-0.0226882211864,0.0,0.0,0.0,0,3,1,0.0,0.0025641026441,0.272842645645,0.0247524753213,-0.99816006422,0.93483710289,-0.996323525906,1.361144426e+14,7,0.00645908061415,-0.00720947701484,-1.86190342903,-0.00876247044653,-0.00348265049979,0.0220109224319,-1.05179035664,1.1123726368,-9.90506362915
80314433,1.41956889629,0.247633844614,-10.4487953186,-0.00069561303826,-0.00213439948857,0.0182402078062,-0.044249702245,0.125205025077,0.4262380898,0.0,0.0,-0.344748795033,0.0,0.0,-0.0229301806539,0.0,0.0,0.0,0,3,1,0.0,-0.0,0.288071066141,0.0247524753213,-1.0,0.937343358994,-0.998161792755,1.361144426e+14,7,0.0064347051084,-0.0071492404677,-1.86280560493,-0.00352085358463,0.00227077305317,-0.0138682872057,1.41956889629,0.247633844614,-10.4487953186
80335807,0.507287621498,0.564702391624,-9.11569786072,-0.025655567646,0.0137508315966,-0.0326175950468,-0.0433323159814,0.12603725493,0.420007348061,0.0,0.0,-0.345382452011,0.0,0.0,-0.0239495877177,0.0,0.0,0.0,0,3,1,0.0,0.0025641026441,0.288071066141,0.0272277221084,-1.0,0.937343358994,-0.998161792755,1.361144426e+14,7,0.00644544232637,-0.00743345497176,-1.86568307877,-0.0107893170789,0.00410280935466,0.00159629248083,0.507287621498,0.564702391624,-9.11569786072
80357719,0.46673387289,0.767369568348,-9.24618625641,-0.0277537535876,-0.00326116615906,-0.0417516455054,-0.0470018386841,0.120211623609,0.419117242098,0.0,0.0,-0.346012145281,0.0,0.0,-0.0237848907709,0.0,0.0,0.0,0,3,1,0.0,0.0025641026441,0.298223346472,0.0247524753213,-1.0,0.937343358994,-0.998161792755,1.361144426e+14,7,0.00648186355829,-0.00718391407281,-1.8671592474,-0.0098963920027,0.0027525506448,-0.00568784028292,0.46673387289,0.767369568348,-9.24618625641
80378941,-0.0885819867253,-1.73808646202,-9.15862846375,-0.0142802856863,-0.0182308275253,0.0744204446673,-0.0378280431032,0.123540557921,0.420897454023,0.0,0.0,-0.345942735672,0.0,0.0,-0.0238267425448,0.0,0.0,0.0,0,3,1,0.0,0.0025641026441,0.305837571621,0.0247524753213,-1.0,0.937343358994,-0.998161792755,1.361144426e+14,7,0.00688226521015,-0.00716731371358,-1.86726164818,0.0146172456443,-0.00491366442293,0.0401208624244,-0.0885819867253,-1.73808646202,-9.15862846375
80400232,0.143467783928,-1.15414583683,-9.67915916443,0.0665527135134,0.0266283378005,0.0279784575105,-0.02223258093,0.167649000883,0.415556818247,0.0,0.0,-0.346525847912,0.0,0.0,-0.023763038218,0.0,0.0,0.0,0,3,1,0.0,0.0025641026441,0.308375626802,0.0247524753213,-1.0,0.937343358994,-0.998161792755,1.361144426e+14,7,0.00650608865544,-0.00727495411411,-1.86191117764,0.0239031072706,0.00965927820653,0.00322151836008,0.143467783928,-1.15414583683,-9.67915916443
80422945,0.234806209803,-0.048660248518,-9.66543769836,0.0176249649376,0.0207408331335,-0.0203440971673,-0.0314063727856,0.153501003981,0.423567771912,0.0,0.0,-0.34783411026,0.0,0.0,-0.024263985455,0.0,0.0,0.0,0,3,1,0.0,-0.0,0.308375626802,0.0247524753213,-1.0,0.937343358994,-0.998161792755,1.361144426e+14,7,0.0063893920742,-0.00727489497513,-1.86123168468,-0.00252587068826,0.00983191188425,-0.0295993573964,0.234806209803,-0.048660248518,-9.66543769836
80443739,-2.0316491127,-0.0127496570349,-9.74787425995,-0.0214541628957,-0.0147569729015,0.0335870049894,-0.0543408766389,0.134359613061,0.420897454023,0.0,0.0,-0.349935561419,0.0,0.0,-0.0251516979188,0.0,0.0,0.0,0,3,1,0.0,-0.0,0.308375626802,0.0247524753213,-1.0,0.937343358994,-0.998161792755,1.361144426e+14,7,0.00629227142781,-0.00757752172649,-1.86239802837,-0.0202031526715,-0.0170175358653,0.0195901915431,-2.0316491127,-0.0127496570349,-9.74787425995
80466177,-1.57299804688,-0.840425252914,-9.74670219421,0.00850862916559,0.0135446079075,0.0178517941386,-0.0460844524205,0.127701729536,0.410216152668,0.0,0.0,-0.351214021444,0.0,0.0,-0.0258405059576,0.0,0.0,0.0,0,3,1,0.0,0.0025641026441,0.308375626802,0.0272277221084,-1.0,0.937343358994,-0.998161792755,1.361144426e+14,7,0.00636099511757,-0.00752147147432,-1.86289548874,0.00981640070677,0.00665526557714,0.0133563764393,-1.57299804688,-0.840425252914,-9.74670219421
80486967,-0.223972037435,-1.32281255722,-9.83830833435,0.0569413416088,0.02834559232,0.0365395955741,-0.0414975658059,0.141849726439,0.41644692421,0.0,0.0,-0.352659374475,0.0,0.0,-0.0266132522374,0.0,0.0,0.0,0,3,1,0.0,0.0025641026441,0.310913711786,0.0247524753213,-1.0,0.937343358994,-0.998161792755,1.361144426e+14,7,0.00662203039974,-0.00711763929576,-1.86358761787,0.0397901497781,0.026363376528,-0.00278606265783,-0.223972037435,-1.32281255722,-9.83830833435
80508412,0.0390371158719,0.692090809345,-9.65285110474,0.0229408293962,0.00567099172622,-0.0608417131007,-0.0534235090017,0.116882666945,0.420007348061,0.0,0.0,-0.353924125433,0.0,0.0,-0.0275220684707,0.0,0.0,0.0,0,3,1,0.0,0.0025641026441,0.318527907133,0.0247524753213,-1.0,0.937343358994,-0.998161792755,1.361144426e+14,7,0.00644497293979,-0.007141682785,-1.86454594135,-0.0017620237777,-0.00678431568667,-0.0309564881027,0.0390371158719,0.692090809345,-9.65285110474
80530457,-0.60494852066,1.36420893669,-9.44958591461,-0.00852377619594,0.0060750269331,-0.056480973959,-0.021315196529,0.131030678749,0.420897454023,0.0,0.0,-0.355352669954,0.0,0.0,-0.0282887779176,0.0,0.0,0.0,0,3,1,0.0,0.0025641026441,0.331218272448,0.0272277221084,-1.0,0.937343358994,-0.998161792755,1.361144426e+14,7,0.0060476870276,-0.0076300278306,-1.86652088165,-0.037992272526,-0.0177792515606,-0.0457555577159,-0.60494852066,1.36420893669,-9.44958591461
80551573,-1.06162714958,0.984768688679,-10.1346502304,0.00808426830918,0.0170318596065,0.0124299563468,-0.0231499485672,0.133527368307,0.429798513651,0.0,0.0,-0.356489151716,0.0,0.0,-0.0287721902132,0.0,0.0,0.0,0,3,1,0.0,-0.0,0.343908637762,0.0247524753213,-1.0,0.937343358994,-0.998161792755,1.361144426e+14,7,0.00641166744754,-0.00749462656677,-1.86575305462,0.0121320709586,0.00984941609204,0.0209000781178,-1.06162714958,0.984768688679,-10.1346502304
80574170,-0.267833858728,-0.521992683411,-9.7270488739,-0.0561716146767,-0.0344112366438,-0.0239640977234,-0.0314063727856,0.124372787774,0.431578755379,0.0,0.0,-0.357276886702,0.0,0.0,-0.0298314653337,0.0,0.0,0.0,0,3,1,0.0,-0.0,0.346446692944,0.0247524753213,-1.0,0.937343358994,-0.998161792755,1.361144426e+14,7,0.00730878859758,-0.00681519089267,-1.86461985111,0.00204064045101,-0.000184830685612,-0.0061496021226,-0.267833858728,-0.521992683411,-9.7270488739
80594977,0.564255416393,0.0225301273167,-9.97532558441,-0.0479235723615,-0.0384950898588,-0.030554568395,-0.0543408766389,0.119379386306,0.425347983837,0.0,0.0,-0.357884347439,0.0,0.0,-0.0295794587582,0.0,0.0,0.0,0,3,1,0.0,-0.0,0.346446692944,0.0247524753213,-1.0,0.937343358994,-0.998161792755,1.361144426e+14,7,0.00646217865869,-0.00730861490592,-1.86589837074,-0.0481069721282,-0.0420582182705,-0.00779734784737,0.564255416393,0.0225301273167,-9.97532558441
80616324,0.845633506775,1.06377899647,-8.9123840332,-0.00550611643121,-0.0275531131774,-0.0614173077047,-0.0497539751232,0.124372787774,0.423567771912,0.0,0.0,-0.356506288052,0.0,0.0,-0.029350310564,0.0,0.0,0.0,0,3,1,0.0,-0.0,0.346446692944,0.0247524753213,-1.0,0.937343358994,-0.998161792755,1.361144426e+14,7,0.005523447413,-0.00823144894093,-1.86666572094,-0.0337349139154,-0.03528188169,-0.0224519111216,0.845633506775,1.06377899647,-8.9123840332
80638660,0.00840639043599,1.64752292633,-9.52053070068,0.0545360408723,0.047154225409,-0.0629631355405,-0.0515887401998,0.12603725493,0.424457877874,0.0,0.0,-0.353131383657,0.0,0.0,-0.0269559640437,0.0,0.0,0.0,0,3,1,0.0,0.0025641026441,0.354060918093,0.0272277221084,-1.0,0.93483710289,-0.996323525906,1.361144426e+14,7,0.00565928313881,-0.00812337268144,-1.87100684643,0.0292911492288,0.0261224098504,-0.0390366502106,0.00840639043599,1.64752292633,-9.52053070068
80660463,-0.175024077296,0.970866203308,-9.71193313599,-0.0122624151409,-0.0298252217472,-0.0687621980906,-0.0470018386841,0.146843135357,0.429798513651,0.0,0.0,-0.352757334709,0.0,0.0,-0.0265258140862,0.0,0.0,0.0,0,3,1,0.0,0.0025641026441,0.374365478754,0.0272277221084,-1.0,0.937343358994,-0.998161792755,1.361144426e+14,7,0.00691475393251,-0.00728651182726,-1.87263417244,0.0351334623992,0.0216076988727,-0.0431791096926,-0.175024077296,0.970866203308,-9.71193313599
80682914,-0.407637745142,0.671015381813,-10.0943574905,-0.0845283865929,-0.0427855849266,-0.0737343207002,-0.0451670847833,0.14767536521,0.432468831539,0.0,0.0,-0.350984483957,0.0,0.0,-0.0253147464246,0.0,0.0,0.0,0,3,1,0.0,0.0025641026441,0.381979703903,0.0272277221084,-1.0,0.937343358994,-0.998161792755,1.361144426e+14,7,0.00687602953985,-0.007289015688,-1.87470829487,-0.0466724187136,-0.0264617428184,-0.0625403523445,-0.407637745142,0.671015381813,-10.0943574905
80703724,-0.27533018589,0.06390915066,-9.67618179321,-0.0638278126717,-0.049296297133,-0.0310617126524,-0.0506713576615,0.131862893701,0.441369891167,0.0,0.0,-0.354236871004,0.0,0.0,-0.0267779380083,0.0,0.0,0.0,0,3,1,0.0,-0.0,0.385786801577,0.0272277221084,-0.99816006422,0.93483710289,-0.998161792755,1.361144426e+14,7,0.00603380473331,-0.00773033127189,-1.87472820282,-0.0530434586108,-0.0396279208362,-0.0148037793115,-0.27533018589,0.06390915066,-9.67618179321
80724989,0.287451982498,-0.330034732819,-9.61838912964,-0.00579898711294,0.00260084285401,-0.0154445422813,-0.0323237553239,0.160158902407,0.427128195763,0.0,0.0,-0.358888864517,0.0,0.0,-0.0287582334131,0.0,0.0,0.0,0,3,1,0.0,-0.0,0.385786801577,0.0272277221084,-0.99816006422,0.93483710289,-0.998161792755,1.361144426e+14,7,0.00577325420454,-0.00839796569198,-1.87376070023,-0.000236004794715,-0.0176091231406,0.0097714997828,0.287451982498,-0.330034732819,-9.61838912964
80746791,0.484663665295,0.253669649363,-9.08442306519,0.0297819450498,0.00456766597927,-0.070775911212,-0.0470018386841,0.12603725493,0.43602925539,0.0,0.0,-0.356797069311,0.0,0.0,-0.0281325448304,0.0,0.0,0.0,0,3,1,0.0,-0.0,0.403553307056,0.0272277221084,-1.0,0.937343358994,-0.998161792755,1.361144426e+14,7,0.00560474488884,-0.0082777980715,-1.87435650826,0.0174320191145,0.000284294161247,-0.0262625757605,0.484663665295,0.253669649363,-9.08442306519
80767367,0.553089022636,0.713031053543,-9.80268287659,0.0753437951207,0.0225874949247,-0.0787377804518,-0.0525061264634,0.155165478587,0.423567771912,0.0,0.0,-0.356913745403,0.0,0.0,-0.027355434373,0.0,0.0,0.0,0,3,1,0.0,0.0025641026441,0.411167502403,0.0272277221084,-1.0,0.937343358994,-0.998161792755,1.361144426e+14,7,0.00596936931834,-0.00782359298319,-1.87570416927,0.0516872107983,0.0263496804982,-0.0614318847656,0.553089022636,0.713031053543,-9.80268287659
80788499,0.00181147269905,0.784594357014,-9.73830127716,0.0348386131227,0.0194917861372,-0.0459221117198,-0.0653494372964,0.151004299521,0.438699603081,0.0,0.0,-0.355147689581,0.0,0.0,-0.0276749618351,0.0,0.0,0.0,0,3,1,0.0,0.0025641026441,0.420050770044,0.0272277221084,-1.0,0.937343358994,-0.998161792755,1.361144426e+14,7,0.00680741807446,-0.00720544718206,-1.87946987152,0.034854888916,0.0374306291342,-0.0467670559883,0.00181147269905,0.784594357014,-9.73830127716
80811312,0.293910682201,0.27360907197,-10.361656189,-0.0280829183757,0.00456509180367,-0.0562479048967,-0.0625973045826,0.130198433995,0.439589679241,0.0,0.0,-0.358746141195,0.0,0.0,-0.0292489808053,0.0,0.0,0.0,0,3,1,0.0,0.0025641026441,0.42512691021,0.0272277221084,-1.0,0.937343358994,-0.998161792755,1.361144426e+14,7,0.00698093511164,-0.00709879305214,-1.88386011124,-0.0239023976028,-0.00399583252147,-0.0507139712572,0.293910682201,0.27360907197,-10.361656189
80831854,-0.686477184296,1.04582214355,-9.51688671112,-0.0374627150595,-0.00706364633515,-0.0267912745476,-0.0378280431032,0.146843135357,0.447600632906,0.0,0.0,-0.361051052809,0.0,0.0,-0.0308752134442,0.0,0.0,0.0,0,3,1,0.0,0.0025641026441,0.445431470871,0.0272277221084,-1.0,0.937343358994,-0.998161792755,1.361144426e+14,7,0.00628889538348,-0.00749116996303,-1.88407516479,-0.046545855701,-0.0278160795569,-0.0279650855809,-0.686477184296,1.04582214355,-9.51688671112
80853261,-0.467051595449,0.350857585669,-10.0864028931,-0.0843328759074,-0.0607856698334,-0.0547336041927,-0.0515887401998,0.152668789029,0.430688619614,0.0,0.0,-0.361783117056,0.0,0.0,-0.0312150660902,0.0,0.0,0.0,0,3,1,0.0,0.0025641026441,0.447969555855,0.0247524753213,-1.0,0.937343358994,-0.998161792755,1.361144426e+14,7,0.00546618783846,-0.00823542382568,-1.88607752323,-0.0671343356371,-0.0561272613704,-0.0488296709955,-0.467051595449,0.350857585669,-10.0864028931
80875060,-0.734894454479,0.0373773090541,-10.1137542725,-0.146647781134,-0.0732038468122,-0.074339851737,-0.0433323159814,0.141017496586,0.448490738869,0.0,0.0,-0.367552042007,0.0,0.0,-0.0346621014178,0.0,0.0,0.0,0,3,1,0.0,0.0025641026441,0.447969555855,0.0247524753213,-1.0,0.937343358994,-0.998161792755,1.361144426e+14,7,0.00333012524061,-0.0100521957502,-1.88852739334,-0.129144996405,-0.0883047655225,-0.0732677280903,-0.734894454479,0.0373773090541,-10.1137542725
80896487,-0.995071589947,-0.0274998769164,-9.94063472748,-0.139538556337,-0.0864484384656,-0.118558853865,-0.0515887401998,0.141849726439,0.434249043465,0.0,0.0,-0.366703987122,0.0,0.0,-0.0346542932093,0.0,0.0,0.0,0,3,1,0.0,-0.0,0.447969555855,0.0247524753213,-1.0,0.937343358994,-0.998161792755,1.361144426e+14,7,0.000857685983647,-0.0121487798169,-1.89173364639,-0.141172781587,-0.109197616577,-0.1176732108,-0.995071589947,-0.0274998769164,-9.94063472748
80917576,-1.0191950798,-0.260065048933,-9.92811012268,-0.0755458474159,-0.0187740027905,-0.123588263988,-0.0525061264634,0.151836544275,0.448490738869,0.0,0.0,-0.367327690125,0.0,0.0,-0.0353826768696,0.0,0.0,0.0,0,3,1,0.0,-0.0,0.459390848875,0.0247524753213,-1.0,0.937343358994,-0.998161792755,1.361144426e+14,7,-0.00113954744302,-0.0139972381294,-1.89651560783,-0.0850744619966,-0.0701645836234,-0.137112006545,-1.0191950798,-0.260065048933,-9.92811012268
80939849,-0.0447248369455,0.0404728874564,-9.62924098969,0.0389999672771,0.0666112452745,-0.104769028723,-0.0708537399769,0.117714904249,0.439589679241,0.0,0.0,-0.368136703968,0.0,0.0,-0.036300316453,0.0,0.0,0.0,0,3,1,0.0,0.0025641026441,0.463197976351,0.0247524753213,-1.0,0.937343358994,-0.998161792755,1.361144426e+14,7,-0.00178674852941,-0.0137740923092,-1.90407705307,0.0170215349644,0.0626139268279,-0.119428873062,-0.0447248369455,0.0404728874564,-9.62924098969
80961190,-0.0429780445993,-0.231346353889,-10.0747509003,0.0553115792572,0.0119972378016,-0.0983232408762,-0.0580103993416,0.148507609963,0.449380844831,0.0,0.0,-0.367789596319,0.0,0.0,-0.0353618711233,0.0,0.0,0.0,0,3,1,0.0,0.0025641026441,0.463197976351,0.0247524753213,-1.0,0.937343358994,-0.998161792755,1.361144426e+14,7,-0.000479671638459,-0.013045841828,-1.90752983093,0.0797993689775,0.0464655198157,-0.107366345823,-0.0429780445993,-0.231346353889,-10.0747509003
80983368,0.023904396221,0.0928405225277,-9.4747800827,-0.0452492237091,0.0092060463503,-0.103901520371,-0.0433323159814,0.146843135357,0.443150103092,0.0,0.0,-0.368055075407,0.0,0.0,-0.0342824570835,0.0,0.0,0.0,0,3,1,0.0,0.0025641026441,0.469543159008,0.0247524753213,-1.0,0.937343358994,-0.998161792755,1.361144426e+14,7,0.000399454555009,-0.0124420924112,-1.9096865654,0.00850020349026,0.0231910534203,-0.104006789625,0.023904396221,0.0928405225277,-9.4747800827
81004256,0.168045550585,0.280349880457,-8.75863838196,-0.0577567256987,-0.0560066252947,-0.0706049278378,-0.0525061264634,0.144346430898,0.446710556746,0.0,0.0,-0.365787833929,0.0,0.0,-0.0353102982044,0.0,0.0,0.0,0,3,1,0.0,0.0025641026441,0.480964481831,0.0247524753213,-1.0,0.937343358994,-0.998161792755,1.361144426e+14,7,-0.00015330973838,-0.0123849622905,-1.91222763062,-0.0476192571223,-0.0271830335259,-0.0805006474257,0.168045550585,0.280349880457,-8.75863838196
81025570,-0.151692688465,0.738206267357,-9.58175563812,-0.0408997759223,-0.0617951378226,-0.0719371140003,-0.0424149334431,0.155997723341,0.449380844831,0.0,0.0,-0.369502335787,0.0,0.0,-0.0370696596801,0.0,0.0,0.0,0,3,1,0.0,-0.0,0.479695439339,0.0247524753213,-1.0,0.937343358994,-0.998161792755,1.361144426e+14,7,-0.00103441544343,-0.0132551444694,-1.91282343864,-0.0466560311615,-0.0606939904392,-0.0659136846662,-0.151692688465,0.738206267357,-9.58175563812
81048905,-0.371359080076,0.384187936783,-9.41389465332,0.00396339921281,0.030237570405,-0.0761472806334,-0.0460844524205,0.146843135357,0.443150103092,0.0,0.0,-0.372180372477,0.0,0.0,-0.0400786548853,0.0,0.0,0.0,0,3,1,0.0,0.0025641026441,0.479695439339,0.0272277221084,-1.0,0.937343358994,-0.998161792755,1.361144426e+14,7,-0.00166070938576,-0.013866907917,-1.91569328308,-0.00615402404219,-0.00616232166067,-0.0785089209676,-0.371359080076,0.384187936783,-9.41389465332
81071449,-0.472828537226,-0.31547254324,-10.1812667847,0.0258490517735,0.0601546168327,-0.0648176521063,-0.0763580128551,0.144346430898,0.438699603081,0.0,0.0,-0.375533908606,0.0,0.0,-0.041029676795,0.0,0.0,0.0,0,3,1,0.0,0.0025641026441,0.479695439339,0.0272277221084,-1.0,0.937343358994,-0.998161792755,1.361144426e+14,7,-0.00155567820184,-0.0129062226042,-1.92115533352,0.0234044454992,0.0610325559974,-0.0819168239832,-0.472828537226,-0.31547254324,-10.1812667847
81092218,-0.21956962347,-0.948019504547,-9.5819606781,0.024311657995,-0.00535188196227,-0.0919520109892,-0.0635146871209,0.14517866075,0.457391798496,0.0,0.0,-0.377718299627,0.0,0.0,-0.0419056862593,0.0,0.0,0.0,0,3,1,0.0,0.0025641026441,0.479695439339,0.0272277221084,-1.0,0.937343358994,-0.998161792755,1.361144426e+14,7,-7.10931344656e-05,-0.0131196724251,-1.9260276556,0.0720189884305,-0.0132579542696,-0.12514539063,-0.21956962347,-0.948019504547,-9.5819606781
81113291,0.0506420470774,-0.273245602846,-10.4330778122,-0.107180774212,0.0333248823881,-0.0967058613896,-0.0644320696592,0.146843135357,0.442259997129,0.0,0.0,-0.381405115128,0.0,0.0,-0.0435122214258,0.0,0.0,0.0,0,3,1,0.0,0.0025641026441,0.479695439339,0.0247524753213,-1.0,0.937343358994,-0.998161792755,1.361144426e+14,7,-0.00053361634491,-0.0128777455539,-1.93000149727,-0.0621325969696,0.0257316622883,-0.137634277344,0.0506420470774,-0.273245602846,-10.4330778122
81135728,0.49630689621,0.0254995301366,-8.82511711121,-0.139534443617,-0.0815899670124,-0.0828827694058,-0.0745232477784,0.142681956291,0.438699603081,0.0,0.0,-0.382783412933,0.0,0.0,-0.0477328784764,0.0,0.0,0.0,0,3,1,0.0,0.0025641026441,0.479695439339,0.0247524753213,-1.0,0.937343358994,-0.998161792755,1.361144426e+14,7,-0.0023417614866,-0.0136792724952,-1.93603742123,-0.115589730442,-0.0624605789781,-0.122016422451,0.49630689621,0.0254995301366,-8.82511711121
81156577,0.402496188879,0.316414535046,-9.17552757263,0.0159748587757,0.040174767375,-0.096656896174,-0.0644320696592,0.132695138454,0.441369891167,0.0,0.0,-0.381846874952,0.0,0.0,-0.0471572764218,0.0,0.0,0.0,0,3,1,0.0,-0.0,0.479695439339,0.0247524753213,-1.0,0.937343358994,-0.998161792755,1.361144426e+14,7,-0.00352482334711,-0.0138379847631,-1.94128251076,-0.0353077203035,0.0205672048032,-0.113418154418,0.402496188879,0.316414535046,-9.17552757263
81177851,0.659957528114,0.0232855454087,-9.53499412537,0.069613404572,0.000565491965972,-0.0813002064824,-0.0644320696592,0.131862893701,0.452941298485,0.0,0.0,-0.382532805204,0.0,0.0,-0.0467287115753,0.0,0.0,0.0,0,3,1,0.0,0.0025641026441,0.479695439339,0.0247524753213,-1.0,0.937343358994,-0.998161792755,1.361144426e+14,7,-0.00220968783833,-0.0128610348329,-1.94680774212,0.0806564614177,0.0440770685673,-0.121258668602,0.659957528114,0.0232855454087,-9.53499412537
81199638,-0.535153985023,-0.040843822062,-10.4939060211,0.0319784134626,-0.036757465452,-0.0696097388864,-0.0717710927129,0.14517866075,0.442259997129,0.0,0.0,-0.385727316141,0.0,0.0,-0.0449742637575,0.0,0.0,0.0,0,3,1,0.0,-0.0,0.479695439339,0.0247524753213,-1.0,0.937343358994,-0.998161792755,1.361144426e+14,7,-0.000202986673685,-0.0126996422186,-1.95265519619,0.0718097537756,-0.00418122205883,-0.0702709779143,-0.535153985023,-0.040843822062,-10.4939060211
81220204,-0.292776346207,-0.327542603016,-9.48578548431,-0.150379657745,-0.0440654158592,-0.0944817885756,-0.0580103993416,0.142681956291,0.438699603081,0.0,0.0,-0.387055397034,0.0,0.0,-0.0479513145983,0.0,0.0,0.0,0,3,1,0.0,0.0025641026441,0.479695439339,0.0247524753213,-1.0,0.937343358994,-0.998161792755,1.361144426e+14,7,-0.000705765211023,-0.0134750390425,-1.9556196928,-0.0882215276361,-0.0403697676957,-0.0683102160692,-0.292776346207,-0.327542603016,-9.48578548431
81241542,-0.0711745023727,-0.0981348007917,-9.77030754089,-0.0905679911375,-0.0312291793525,-0.0771406665444,-0.0589277818799,0.141849726439,0.443150103092,0.0,0.0,-0.39448055625,0.0,0.0,-0.0549094974995,0.0,0.0,0.0,0,3,1,0.0,0.0025641026441,0.479695439339,0.0247524753213,-1.0,0.937343358994,-0.998161792755,1.361144426e+14,7,-0.00350590469316,-0.0138931144029,-1.95765113831,-0.14617305994,-0.0329028703272,-0.086406506598,-0.0711745023727,-0.0981348007917,-9.77030754089
81264211,-0.637012243271,-0.0607895925641,-9.91108608246,-0.0523138381541,0.044069737196,-0.0452919788659,-0.0470018386841,0.151004299521,0.446710556746,0.0,0.0,-0.39109608531,0.0,0.0,-0.0549979694188,0.0,0.0,0.0,0,3,1,0.0,0.0025641026441,0.479695439339,0.0272277221084,-1.0,0.93483710289,-0.996323525906,1.361144426e+14,7,-0.00527134211734,-0.0136304907501,-1.95930600166,-0.0725541785359,0.0230664033443,-0.0660133957863,-0.637012243271,-0.0607895925641,-9.91108608246
81284754,-0.411646425724,-0.82058262825,-9.36537456512,-0.0841165930033,-0.0332303158939,-0.0105523457751,-0.0607625506818,0.138520792127,0.459172040224,0.0,0.0,-0.388517856598,0.0,0.0,-0.0536709167063,0.0,0.0,0.0,0,3,1,0.0,0.0025641026441,0.479695439339,0.0272277221084,-1.0,0.937343358994,-0.998161792755,1.361144426e+14,7,-0.00561680272222,-0.0137142809108,-1.9620167017,-0.0358113273978,-0.02460738644,-0.0344199389219,-0.411646425724,-0.82058262825,-9.36537456512
81306172,-0.518428146839,-0.802115380764,-9.3210144043,0.0313883461058,0.0857895389199,0.0509072728455,-0.0488366037607,0.14767536521,0.455611586571,0.0,0.0,-0.384421259165,0.0,0.0,-0.0499137714505,0.0,0.0,0.0,0,3,1,0.0,0.0025641026441,0.483502537012,0.0247524753213,-1.0,0.937343358994,-0.998161792755,1.361144426e+14,7,-0.00572078861296,-0.0134055456147,-1.96183121204,0.0273632351309,0.0465603917837,0.0112710241228,-0.518428146839,-0.802115380764,-9.3210144043
81328364,-0.316714525223,0.379072189331,-10.0440425873,-0.00115746585652,-0.0898059308529,-0.0607970990241,-0.0625973045826,0.13685631752,0.451161086559,0.0,0.0,-0.384823828936,0.0,0.0,-0.0482246801257,0.0,0.0,0.0,0,3,1,0.0,0.0025641026441,0.483502537012,0.0247524753213,-1.0,0.937343358994,-0.998161792755,1.361144426e+14,7,-0.00496642570943,-0.013201280497,-1.96284306049,0.0166113674641,-0.0359190404415,-0.032755382359,-0.316714525223,0.379072189331,-10.0440425873
81349410,0.117044448853,-0.390869379044,-8.91430282593,0.0395071282983,0.0159880761057,0.0149394087493,-0.0671842098236,0.134359613061,0.445820450783,0.0,0.0,-0.388210564852,0.0,0.0,-0.0480436198413,0.0,0.0,0.0,0,3,1,0.0,0.0025641026441,0.489847719669,0.0222772285342,-0.99816006422,0.93483710289,-0.998161792755,1.361144426e+14,7,-0.00375761231408,-0.0136660942808,-1.96468937397,0.066412076354,-0.0113791134208,-0.0116746900603,0.117044448853,-0.390869379044,-8.91430282593
81370725,-1.11458730698,1.05407142639,-9.49777030945,0.111008763313,-0.0464787706733,-0.0357314497232,-0.0671842098236,0.142681956291,0.452941298485,0.0,0.0,-0.379503071308,0.0,0.0,-0.0427127629519,0.0,0.0,0.0,0,3,1,0.0,0.0025641026441,0.489847719669,0.0222772285342,-1.0,0.937343358994,-0.998161792755,1.361144426e+14,7,-0.00231510493904,-0.0135224508122,-1.96800982952,0.0844433009624,-0.0105839259923,-0.00435840152204,-1.11458730698,1.05407142639,-9.49777030945
81392793,-1.27635705471,1.09541916847,-10.5892677307,-0.0633264482021,0.00591232348233,-0.0679273158312,-0.0708537399769,0.146843135357,0.449380844831,0.0,0.0,-0.378829568624,0.0,0.0,-0.0428102016449,0.0,0.0,0.0,0,3,1,0.0,-0.0,0.491116762161,0.0222772285342,-1.0,0.937343358994,-0.998161792755,1.361144426e+14,7,-0.00200564856641,-0.013961378485,-1.97026526928,-0.0311912074685,-0.0128319216892,-0.0422115847468,-1.27635705471,1.09541916847,-10.5892677307
81414036,-0.848634839058,0.232602924109,-9.32232952118,-0.00570361223072,-0.0325627475977,-0.127734839916,-0.0644320696592,0.140185251832,0.449380844831,0.0,0.0,-0.379975348711,0.0,0.0,-0.0457939133048,0.0,0.0,0.0,0,3,1,0.0,-0.0,0.493654817343,0.0222772285342,-1.0,0.939849615097,-0.998161792755,1.361144426e+14,7,-0.00236238888465,-0.0139253549278,-1.97214353085,-0.0173159930855,-0.00954597629607,-0.10167337209,-0.848634839058,0.232602924109,-9.32232952118
81436374,-1.33803272247,0.2131472826,-10.1222171783,0.0105802603066,0.0835273265839,-0.135363638401,-0.0681015923619,0.144346430898,0.436919361353,0.0,0.0,-0.377415776253,0.0,0.0,-0.0457896180451,0.0,0.0,0.0,0,3,1,0.0,-0.0,0.493654817343,0.0222772285342,-1.0,0.937343358994,-0.998161792755,1.361144426e+14,7,-0.00349262985401,-0.0139507334679,-1.97644782066,-0.0464908704162,0.0301901549101,-0.138538882136,-1.33803272247,0.2131472826,-10.1222171783
81457198,-1.09554874897,-0.0919476076961,-9.6335067749,0.0525578185916,0.0377877689898,-0.0666961595416,-0.0726884827018,0.143514186144,0.451161086559,0.0,0.0,-0.380901902914,0.0,0.0,-0.0477740690112,0.0,0.0,0.0,0,3,1,0.0,-0.0,0.493654817343,0.0222772285342,-1.0,0.937343358994,-0.998161792755,1.361144426e+14,7,-0.00274012982845,-0.0131785916165,-1.9798746109,0.0471234247088,0.0312487706542,-0.0741393864155,-1.09554874897,-0.0919476076961,-9.6335067749
81478438,-1.34628379345,-0.0370532274246,-10.4270029068,0.0397518612444,0.00596054224297,-0.00142094353214,-0.0662668198347,0.138520792127,0.44493034482,0.0,0.0,-0.378587961197,0.0,0.0,-0.0453955084085,0.0,0.0,0.0,0,3,1,0.0,-0.0,0.494923859835,0.0247524753213,-1.0,0.93483710289,-0.996323525906,1.361144426e+14,7,-0.00171489757486,-0.0131946653128,-1.98198330402,0.0524933263659,-0.00497417151928,-0.00944711547345,-1.34628379345,-0.0370532274246,-10.4270029068
81500365,-0.51916128397,0.656425118446,-9.47216510773,-0.00497527932748,0.00806787144393,-0.0444225147367,-0.0525061264634,0.164320066571,0.450270950794,0.0,0.0,-0.373467832804,0.0,0.0,-0.0422055162489,0.0,0.0,0.0,0,3,1,0.0,-0.0,0.494923859835,0.0222772285342,-1.0,0.937343358994,-0.998161792755,1.361144426e+14,7,-0.000495723390486,-0.0138224726543,-1.98127281666,0.0351305492222,-0.00836415123194,-0.0195868387818,-0.51916128397,0.656425118446,-9.47216510773
81520742,0.1208678931,0.955633819103,-10.2728033066,-0.0922020822763,-0.0191685259342,-0.0935174748302,-0.0635146871209,0.141849726439,0.440479785204,0.0,0.0,-0.371528357267,0.0,0.0,-0.0430052354932,0.0,0.0,0.0,0,3,1,0.0,-0.0,0.494923859835,0.0222772285342,-1.0,0.937343358994,-0.998161792755,1.361144426e+14,7,-0.00176072050817,-0.0135827837512,-1.98210072517,-0.100842438638,0.0121700847521,-0.0701616182923,0.1208678931,0.955633819103,-10.2728033066
