ATT_Roll,ATT_Pitch,ATT_Yaw,ATT_RollRate,ATT_PitchRate,ATT_YawRate,ATT_GX,ATT_GY,ATT_GZ,ATSP_RollSP,ATSP_PitchSP,ATSP_YawSP,ATSP_ThrustSP,IMU_AccX,IMU_AccY,IMU_AccZ,IMU_GyroX,IMU_GyroY,IMU_GyroZ,IMU_MagX,IMU_MagY,IMU_MagZ,SENS_BaroPres,SENS_BaroAlt,SENS_BaroTemp,SENS_DiffPres,SENS_DiffPresFilt,LPOS_X,LPOS_Y,LPOS_Z,LPOS_VX,LPOS_VY,LPOS_VZ,LPOS_RefLat,LPOS_RefLon,LPOS_RefAlt,LPOS_XYFlags,LPOS_ZFlags,LPOS_Landed,LPSP_X,LPSP_Y,LPSP_Z,LPSP_Yaw,GPS_GPSTime,GPS_FixType,GPS_EPH,GPS_EPV,GPS_Lat,GPS_Lon,GPS_Alt,GPS_VelN,GPS_VelE,GPS_VelD,GPS_Cog,ATTC_Roll,ATTC_Pitch,ATTC_Yaw,ATTC_Thrust,STAT_MainState,STAT_ArmState,STAT_BatRem,STAT_BatWarn,STAT_Landed,RC_Ch0,RC_Ch1,RC_Ch2,RC_Ch3,RC_Ch4,RC_Ch5,RC_Ch6,RC_Ch7,RC_Count,OUT0_Out0,OUT0_Out1,OUT0_Out2,OUT0_Out3,OUT0_Out4,OUT0_Out5,OUT0_Out6,OUT0_Out7,AIRS_IndSpeed,AIRS_TrueSpeed,ARSP_RollRateSP,ARSP_PitchRateSP,ARSP_YawRateSP,FLOW_RawX,FLOW_RawY,FLOW_CompX,FLOW_CompY,FLOW_Dist,FLOW_Q,FLOW_SensID,GPOS_Lat,GPOS_Lon,GPOS_Alt,GPOS_VelN,GPOS_VelE,GPOS_VelD,GPOS_EPH,GPOS_EPV,GPSP_NavState,GPSP_Lat,GPSP_Lon,GPSP_Alt,GPSP_Yaw,GPSP_Type,GPSP_LoitR,GPSP_LoitDir,GPSP_PitMin,ESC_Counter,ESC_NumESC,ESC_Conn,ESC_N,ESC_Ver,ESC_Adr,ESC_Volt,ESC_Amp,ESC_RPM,ESC_Temp,ESC_SetP,ESC_SetPRAW,GVSP_VX,GVSP_VY,GVSP_VZ,BATT_V,BATT_VFilt,BATT_C,BATT_Discharged,DIST_Bottom,DIST_BottomRate,DIST_Flags,TELE_RSSI,TELE_RemRSSI,TELE_Noise,TELE_RemNoise,TELE_RXErr,TELE_Fixed,TELE_TXBuf,TIME_StartTime,VER_Arch,VER_FwGit,PARM_Name,PARM_Value,ESTM_s0,ESTM_s1,ESTM_s2,ESTM_s3,ESTM_s4,ESTM_s5,ESTM_s6,ESTM_s7,ESTM_s8,ESTM_s9,ESTM_n_states,ESTM_states_nan,ESTM_cov_nan,ESTM_kgain_
,,,,,,,,,,,,,,,,,,,,,,,,,,,,,,,,,,,,,,,,,,,,,,,,,,,,,,,,,,,,,,,,,,,,,,,,,,,,,,,,,,,,,,,,,,,,,,,,,,,,,,,,,,,,,,,,,,,,,,,,,,,,,,,,,,,,,,,,,,,PX4FMU_V1,unknown_git_version,test,305419904.0,,,,,,,,,,,,,,
0.0172858498991,0.00323737319559,2.52581644058,0.00328894448467,0.00321481004357,0.00828051380813,-0.059432014823,-0.0706938579679,-9.72420024872,0.0,0.0,2.52897810936,0.0,-0.059432014823,-0.0706938579679,-9.72420024872,0.00318959262222,0.00287516810931,0.0084369238466,-0.213047668338,-0.152761399746,0.33010661602,1012.73999023,4.24617195129,39.6899986267,0.0,0.0,0.0,0.0,0.377304762602,0.0,0.0,0.202709853649,0.0,0.0,0.0,0,3,1,,,,,,,,,,,,,,,,-0.0116633269936,-0.00252232211642,-0.000763646152336,0.0,0,2,1.0,0,1,0.0,-0.0,0.0,1.0,1.0,0.789473712444,-0.998161792755,-2.47105876656e+14,7,10.0,10.0,10.0,10.0,0.0,0.0,0.0,0.0,,,-0.0864289551973,-0.0161876678467,0.00318953953683,,,,,,,,,,,,,,,,,,,,,,,,,,,,,,,,,,,,,,,,12.2948570251,12.3066720963,-1.0,-1.0,,,,,,,,,,,7737395,PX4FMU_V1,unknown_git_version,test,305419904.0,,,,,,,,,,,,,,
0.0173128917813,0.00324374553747,2.52560448647,0.00382774602622,0.0031282978598,0.00785967335105,-0.0677902251482,-0.083205640316,-9.75137519836,0.0,0.0,2.52897810936,0.0,-0.0677902251482,-0.083205640316,-9.75137519836,0.00419786013663,0.00340524408966,0.00773927569389,-0.214882433414,-0.151929184794,0.335447221994,1012.67999268,4.74583530426,39.6899986267,0.0,0.0,0.0,0.0,0.380607128143,0.0,0.0,0.203545242548,0.0,0.0,0.0,0,3,1,,,,,,,,,,,,,,,,-0.0117509439588,-0.00251521845348,-0.000668704509735,0.0,0,2,1.0,0,1,0.0,-0.0,0.0,1.0,1.0,0.789473712444,-0.998161792755,-2.47105876656e+14,7,10.0,10.0,10.0,10.0,0.0,0.0,0.0,0.0,,,-0.0865641385317,-0.0162195377052,0.00340164382942,,,,,,,,,,,,,,,,,,,,,,,,,,,,,,,,,,,,,,,,12.303237915,12.3066568375,-1.0,-1.0,,,,,,,,,,,7758726,PX4FMU_V1,unknown_git_version,test,305419904.0,,,,,,,,,,,,,,
0.017344661057,0.00327436253428,2.52563762665,0.00375085673295,0.00387072120793,0.00771270785481,-0.0554854646325,-0.0740478038788,-9.74589157104,0.0,0.0,2.52897810936,0.0,-0.0554854646325,-0.0740478038788,-9.74589157104,0.0037872614339,0.00415744911879,0.00740132946521,-0.214882433414,-0.152761399746,0.336337357759,1012.67999268,4.74583530426,39.6899986267,0.0,0.0,0.0,0.0,0.379514217377,0.0,0.0,0.202099323273,0.0,0.0,0.0,0,3,1,,,,,,,,,,,,,,,,-0.0117616020143,-0.00263163726777,-0.000651581562124,0.0,0,2,1.0,0,1,0.0,-0.0,0.0,1.0,0.99816006422,0.791979968548,-0.998161792755,-2.47105876656e+14,7,10.0,10.0,10.0,10.0,0.0,0.0,0.0,0.0,,,-0.0867230147123,-0.0163726415485,0.00336883077398,,,,,,,,,,,,,,,,,,,,,,,,,,,,,,,,,,,,,,,,12.2948570251,12.3066339493,-1.0,-1.0,,,,,,,,,,,7781234,PX4FMU_V1,unknown_git_version,test,305419904.0,,,,,,,,,,,,,,
0.017367914319,0.00328914471902,2.52524209023,0.00340483919717,0.00311371847056,0.00807179510593,-0.0686129331589,-0.0728072226048,-9.7361125946,0.0,0.0,2.52897810936,0.0,-0.0686129331589,-0.0728072226048,-9.7361125946,0.00332610262558,0.0029007261619,0.00809630379081,-0.213965043426,-0.151096940041,0.32743626833,1012.69995117,4.57927846909,39.6899986267,0.0,0.0,0.0,0.0,0.381468713284,0.0,0.0,0.202601194382,0.0,0.0,0.0,0,3,1,,,,,,,,,,,,,,,,-0.011731733568,-0.00254283566028,-0.000646086875349,0.0,0,2,1.0,0,1,0.0,-0.0,0.0,1.0,0.99816006422,0.789473712444,-0.998161792755,-2.47105876656e+14,7,10.0,10.0,10.0,10.0,0.0,0.0,0.0,0.0,,,-0.0868392661214,-0.016446556896,0.00376454927027,,,,,,,,,,,,,,,,,,,,,,,,,,,,,,,,,,,,,,,,12.2948570251,12.3066225052,-1.0,-1.0,,,,,,,,,,,7802085,PX4FMU_V1,unknown_git_version,test,305419904.0,,,,,,,,,,,,,,
0.0173892267048,0.00330565078184,2.52483892441,0.00308149168268,0.0039868298918,0.00807878375053,-0.0727696493268,-0.0772931575775,-9.72861671448,0.0,0.0,2.52897810936,0.0,-0.0714322626591,-0.0750892013311,-9.73066520691,0.0032310411334,0.00428155297413,0.00837798044086,-0.213965043426,-0.150264695287,0.339007675648,1012.75,4.16289710999,39.6899986267,0.0,0.0,0.0,0.0,0.384849995375,0.0,0.0,0.20335586369,0.0,0.0,0.0,0,3,1,,,,,,,,,,,,,,,,-0.0117035489529,-0.00266706990078,-0.000586610753089,0.0,0,2,1.0,0,1,0.0,-0.0,0.0,1.0,0.99816006422,0.789473712444,-0.998161792755,-2.47105876656e+14,7,10.0,10.0,10.0,10.0,0.0,0.0,0.0,0.0,,,-0.0869458094239,-0.0165290925652,0.00416804570705,,,,,,,,,,,,,,,,,,,,,,,,,,,,,,,,,,,,,,,,12.2948570251,12.3065910339,-1.0,-1.0,,,,,,,,,,,7823284,PX4FMU_V1,unknown_git_version,test,305419904.0,,,,,,,,,,,,,,
0.0174090377986,0.0033284004312,2.52455806732,0.00348080950789,0.00347647909075,0.00847174972296,-0.0594243146479,-0.0911691784859,-9.74115562439,0.0,0.0,2.52897810936,0.0,-0.0594243146479,-0.0911691784859,-9.74115562439,0.00405568256974,0.00337905203924,0.00846340507269,-0.213047668338,-0.158587053418,0.330996721983,1012.75994873,4.07962274551,39.6899986267,0.0,0.0,0.0,0.0,0.391079336405,0.0,0.0,0.205570489168,0.0,0.0,0.0,0,3,1,,,,,,,,,,,,,,,,-0.0117683382705,-0.00261551211588,-0.000603413383942,0.0,0,2,1.0,0,1,0.0,-0.0,0.0,1.0,1.0,0.789473712444,-0.998161792755,-2.47105876656e+14,7,10.0,10.0,10.0,10.0,0.0,0.0,0.0,0.0,,,-0.0870448723435,-0.0166428443044,0.00444899406284,,,,,,,,,,,,,,,,,,,,,,,,,,,,,,,,,,,,,,,,12.2948570251,12.3065681458,-1.0,-1.0,,,,,,,,,,,7845382,PX4FMU_V1,unknown_git_version,test,305419904.0,,,,,,,,,,,,,,
0.0174408331513,0.00334931421094,2.52418327332,0.00387883768417,0.00336722424254,0.00815330632031,-0.0489069186151,-0.0766148045659,-9.71519088745,0.0,0.0,2.52897810936,0.0,-0.0489069186151,-0.0766148045659,-9.71519088745,0.00384585745633,0.00327955139801,0.00766323693097,-0.214882433414,-0.151096940041,0.329216480255,1012.7199707,4.4127240181,39.6899986267,0.0,0.0,0.0,0.0,0.395982354879,0.0,0.0,0.207112073898,0.0,0.0,0.0,0,3,1,,,,,,,,,,,,,,,,-0.0118407476693,-0.00261490349658,-0.000499377900269,0.0,0,2,1.0,0,1,0.0,-0.0,0.0,1.0,0.99816006422,0.789473712444,-0.998161792755,-2.47105876656e+14,7,10.0,10.0,10.0,10.0,0.0,0.0,0.0,0.0,,,-0.0872038379312,-0.0167474187911,0.00482412055135,,,,,,,,,,,,,,,,,,,,,,,,,,,,,,,,,,,,,,,,12.2948570251,12.3065452576,-1.0,-1.0,,,,,,,,,,,7866535,PX4FMU_V1,unknown_git_version,test,305419904.0,,,,,,,,,,,,,,
0.0174535401165,0.00336453737691,2.52314639091,0.00296140671708,0.00295940507203,0.00746852904558,-0.0635020434856,-0.074978210032,-9.72196578979,0.0,0.0,2.52897810936,0.0,-0.0635020434856,-0.074978210032,-9.72196578979,0.0033889086917,0.00269096228294,0.00695474585518,-0.214882433414,-0.159419283271,0.333667010069,1012.72998047,4.32944774628,39.6800003052,0.0,0.0,0.0,0.0,0.398958474398,0.0,0.0,0.207837358117,0.0,0.0,0.0,0,3,1,,,,,,,,,,,,,,,,-0.0117297377437,-0.00257178233005,-0.000241131157964,0.0,0,2,1.0,0,1,0.0,-0.0,0.0,1.0,0.99816006422,0.789473712444,-0.998161792755,-2.47105876656e+14,7,10.0,10.0,10.0,10.0,0.0,0.0,0.0,0.0,,,-0.0872673541307,-0.0168235376477,0.0058609880507,,,,,,,,,,,,,,,,,,,,,,,,,,,,,,,,,,,,,,,,12.2948570251,12.3065223694,-1.0,-1.0,,,,,,,,,,,7888953,PX4FMU_V1,unknown_git_version,test,305419904.0,,,,,,,,,,,,,,
0.0174748636782,0.00337760848925,2.52233171463,0.00360517646186,0.00309838028625,0.00777678424492,-0.0499276332557,-0.0729553326964,-9.71197319031,0.0,0.0,2.52897810936,0.0,-0.0499276332557,-0.0729553326964,-9.71197319031,0.00345376390032,0.00336993811652,0.00833115633577,-0.213965043426,-0.161083757877,0.332776933908,1012.70996094,4.49600076675,39.6800003052,0.0,0.0,0.0,0.0,0.400540143251,0.0,0.0,0.208257779479,0.0,0.0,0.0,0,3,1,,,,,,,,,,,,,,,,-0.0118272909895,-0.00259834621102,-0.000165143195773,0.0,0,2,1.0,0,1,0.0,-0.0,0.0,1.0,0.99816006422,0.789473712444,-0.998161792755,-2.47105876656e+14,7,10.0,10.0,10.0,10.0,0.0,0.0,0.0,0.0,,,-0.0873739868402,-0.0168888997287,0.00667582964525,,,,,,,,,,,,,,,,,,,,,,,,,,,,,,,,,,,,,,,,12.2948570251,12.3065109253,-1.0,-1.0,,,,,,,,,,,7909847,PX4FMU_V1,unknown_git_version,test,305419904.0,,,,,,,,,,,,,,
0.0174939781427,0.00339944381267,2.52214956284,0.00368861551397,0.00391079019755,0.00789480470121,-0.0680371075869,-0.0694553628564,-9.73885726929,0.0,0.0,2.52897810936,0.0,-0.0680371075869,-0.0694553628564,-9.73885726929,0.00392998149619,0.00404630368575,0.00807321071625,-0.212130278349,-0.156090334058,0.332776933908,1012.67999268,4.74583530426,39.6800003052,0.0,0.0,0.0,0.0,0.400342524052,0.0,0.0,0.207453116775,0.0,0.0,0.0,0,3,1,,,,,,,,,,,,,,,,-0.0118505610153,-0.00271815387532,-0.000155478235683,0.0,0,2,1.0,0,1,0.0,-0.0,0.0,1.0,0.99816006422,0.789473712444,-0.998161792755,-2.47105876656e+14,7,10.0,10.0,10.0,10.0,0.0,0.0,0.0,0.0,,,-0.087469547987,-0.0169980861247,0.00685828318819,,,,,,,,,,,,,,,,,,,,,,,,,,,,,,,,,,,,,,,,12.2948570251,12.3064880371,-1.0,-1.0,,,,,,,,,,,7931243,PX4FMU_V1,unknown_git_version,test,305419904.0,,,,,,,,,,,,,,
0.0175165422261,0.00342366821133,2.52123594284,0.00331595656462,0.00373761891387,0.0083202989772,-0.0546269454062,-0.0708604454994,-9.7374458313,0.0,0.0,2.52897810936,0.0,-0.0546269454062,-0.0708604454994,-9.7374458313,0.00332209654152,0.00362784299068,0.00808450300246,-0.216717198491,-0.156922578812,0.33010661602,1012.67999268,4.74583530426,39.6800003052,0.0,0.0,0.0,0.0,0.402437508106,0.0,0.0,0.207804679871,0.0,0.0,0.0,0,3,1,,,,,,,,,,,,,,,,-0.0118167810142,-0.00271138874814,-8.22333895485e-05,0.0,0,2,1.0,0,1,0.0,-0.0,0.0,1.0,1.0,0.789473712444,-0.998161792755,-2.47105876656e+14,7,10.0,10.0,10.0,10.0,0.0,0.0,0.0,0.0,,,-0.0875823646784,-0.017119217664,0.00777207640931,,,,,,,,,,,,,,,,,,,,,,,,,,,,,,,,,,,,,,,,12.2948570251,12.306473732,-1.0,-1.0,,,,,,,,,,,7953109,PX4FMU_V1,unknown_git_version,test,305419904.0,,,,,,,,,,,,,,
0.0175343751907,0.0034439121373,2.52100968361,0.00344291445799,0.00359118054621,0.00810215901583,-0.0704778581858,-0.0718319565058,-9.73403167725,0.0,0.0,2.52897810936,0.0,-0.0704778581858,-0.0718319565058,-9.73403167725,0.00352168269455,0.00321063632146,0.00807673111558,-0.216717198491,-0.161083757877,0.330996721983,1012.70996094,4.49600076675,39.6800003052,0.0,0.0,0.0,0.0,0.402691751719,0.0,0.0,0.207217201591,0.0,0.0,0.0,0,3,1,,,,,,,,,,,,,,,,-0.011844875291,-0.00270551093854,-1.55410270963e-05,0.0,0,2,1.0,0,1,0.0,-0.0,0.0,1.0,0.99816006422,0.789473712444,-0.998161792755,-2.47105876656e+14,7,10.0,10.0,10.0,10.0,0.0,0.0,0.0,0.0,,,-0.0876715183258,-0.0172204431146,0.00799855217338,,,,,,,,,,,,,,,,,,,,,,,,,,,,,,,,,,,,,,,,12.2948570251,12.3064508438,-1.0,-1.0,,,,,,,,,,,7974287,PX4FMU_V1,unknown_git_version,test,305419904.0,,,,,,,,,,,,,,
0.0175500698388,0.00344963138923,2.52045941353,0.00300340470858,0.00302538811229,0.00832189619541,-0.0702337920666,-0.0788525789976,-9.72246170044,0.0,0.0,2.52897810936,0.0,-0.0702337920666,-0.0788525789976,-9.72246170044,0.00288090854883,0.00299101020209,0.00843508727849,-0.216717198491,-0.151929184794,0.335447221994,1012.7199707,4.4127240181,39.6800003052,0.0,0.0,0.0,0.0,0.40357208252,0.0,0.0,0.207277745008,0.0,0.0,0.0,0,3,1,,,,,,,,,,,,,,,,-0.0117979422212,-0.00263567664661,3.40640544891e-05,0.0,0,2,1.0,0,1,0.0,-0.0,0.0,1.0,1.0,0.789473712444,-0.998161792755,-2.47105876656e+14,7,10.0,10.0,10.0,10.0,0.0,0.0,0.0,0.0,,,-0.0877500027418,-0.0172490477562,0.00854898989201,,,,,,,,,,,,,,,,,,,,,,,,,,,,,,,,,,,,,,,,12.2948570251,12.3064393997,-1.0,-1.0,,,,,,,,,,,7995446,PX4FMU_V1,unknown_git_version,test,305419904.0,,,,,,,,,,,,,,
0.0175665076822,0.0034629155416,2.51992177963,0.00367417535745,0.00337486946955,0.00829195789993,-0.0735632032156,-0.0566939711571,-9.74390506744,0.0,0.0,2.52897810936,0.0,-0.0735632032156,-0.0566939711571,-9.74390506744,0.00406912807375,0.0034341965802,0.0079624094069,-0.216717198491,-0.160251513124,0.332776933908,1012.7199707,4.4127240181,39.6800003052,0.0,0.0,0.0,0.0,0.406162142754,0.0,0.0,0.207797154784,0.0,0.0,0.0,0,3,1,,,,,,,,,,,,,,,,-0.0118958260864,-0.00268974364735,0.000119229785923,0.0,0,2,1.0,0,1,0.0,-0.0,0.0,1.0,0.99816006422,0.791979968548,-0.998161792755,-2.47105876656e+14,7,10.0,10.0,10.0,10.0,0.0,0.0,0.0,0.0,,,-0.0878321826458,-0.0173154678196,0.00908682309091,,,,,,,,,,,,,,,,,,,,,,,,,,,,,,,,,,,,,,,,12.2864761353,12.3064079285,-1.0,-1.0,,,,,,,,,,,8017120,PX4FMU_V1,unknown_git_version,test,305419904.0,,,,,,,,,,,,,,
0.0175951439887,0.00347370351665,2.51959347725,0.00401186943054,0.00326172099449,0.00831586495042,-0.0593600049615,-0.0770018175244,-9.73712348938,0.0,0.0,2.52897810936,0.0,-0.0593600049615,-0.0770018175244,-9.73712348938,0.00379849784076,0.00362621550448,0.00821282807738,-0.216717198491,-0.155258119106,0.333667010069,1012.72998047,4.32944774628,39.6800003052,0.0,0.0,0.0,0.0,0.409568578005,0.0,0.0,0.208601847291,0.0,0.0,0.0,0,3,1,,,,,,,,,,,,,,,,-0.0119583411142,-0.00268204696476,0.000164900120581,0.0,0,2,1.0,0,1,0.0,-0.0,0.0,1.0,0.99816006422,0.789473712444,-0.996323525906,-2.47105876656e+14,7,10.0,10.0,10.0,10.0,0.0,0.0,0.0,0.0,,,-0.0879753753543,-0.0173694100231,0.00941519904882,,,,,,,,,,,,,,,,,,,,,,,,,,,,,,,,,,,,,,,,12.2948570251,12.3063936234,-1.0,-1.0,,,,,,,,,,,8037775,PX4FMU_V1,unknown_git_version,test,305419904.0,,,,,,,,,,,,,,
0.0176131706685,0.00348929921165,2.51909995079,0.00304280081764,0.00320928241126,0.0085865939036,-0.0643611326814,-0.0752494111657,-9.72434711456,0.0,0.0,2.52897810936,0.0,-0.0643611326814,-0.0752494111657,-9.72434711456,0.00292902905494,0.003017233219,0.00870369933546,-0.213965043426,-0.166909396648,0.333667010069,1012.73999023,4.24617195129,39.6699981689,0.0,0.0,0.0,0.0,0.413917660713,0.0,0.0,0.209823653102,0.0,0.0,0.0,0,3,1,,,,,,,,,,,,,,,,-0.0118440762162,-0.00268536782824,0.000198332316359,0.0,0,2,1.0,0,1,0.0,-0.0,0.0,1.0,0.99816006422,0.789473712444,-0.996323525906,-2.47105876656e+14,7,10.0,10.0,10.0,10.0,0.0,0.0,0.0,0.0,,,-0.088065482676,-0.0174473952502,0.00990880932659,,,,,,,,,,,,,,,,,,,,,,,,,,,,,,,,,,,,,,,,12.2948570251,12.3063707352,-1.0,-1.0,,,,,,,,,,,8059066,PX4FMU_V1,unknown_git_version,test,305419904.0,,,,,,,,,,,,,,
0.0176218096167,0.0035079116933,2.51938867569,0.00305079249665,0.00452707801014,0.00910956785083,-0.111264668405,-0.0303543638438,-9.75032615662,0.0,0.0,2.52897810936,0.0,-0.111264668405,-0.0303543638438,-9.75032615662,0.00343852117658,0.00565273175016,0.0085622407496,-0.233230039477,-0.145271286368,0.357699900866,1012.69995117,4.57927846909,39.6699981689,0.0,0.0,0.0,0.0,0.415595948696,0.0,0.0,0.209688395262,0.0,0.0,0.0,0,3,1,,,,,,,,,,,,,,,,-0.0118507295847,-0.0028687810991,7.66156299505e-05,0.0,0,2,1.0,0,1,0.0,-0.0,0.0,1.0,0.99816006422,0.789473712444,-0.998161792755,-2.47105876656e+14,7,10.0,10.0,10.0,10.0,0.0,0.0,0.0,0.0,,,-0.0881086736917,-0.0175404697657,0.00962033867836,,,,,,,,,,,,,,,,,,,,,,,,,,,,,,,,,,,,,,,,12.0015239716,12.3060626984,-1.0,-1.0,,,,,,,,,,,8081451,PX4FMU_V1,unknown_git_version,test,305419904.0,,,,,,,,,,,,,,
0.0176663417369,0.00349849485792,2.52024316788,0.00360175245441,0.00705611053854,0.0134181194007,-0.547155201435,-0.124715670943,-10.0656757355,0.0,0.0,2.52897810936,0.0,-0.547155201435,-0.124715670943,-10.0656757355,0.00299297180027,0.0134233310819,0.00876211561263,-0.222221463919,-0.136948943138,0.395974457264,1012.75,4.16289710999,39.6699981689,0.0,0.0,0.0,0.0,0.415920466185,0.0,0.0,0.209271386266,0.0,0.0,0.0,0,3,1,,,,,,,,,,,,,,,,-0.0119513040408,-0.00319143384695,-0.000697824172676,0.0,0,2,1.0,0,1,0.0,-0.0,0.0,1.0,1.0,0.789473712444,-0.998161792755,-2.47105876656e+14,7,10.0,10.0,10.0,10.0,0.0,0.0,0.0,0.0,,,-0.0883313566446,-0.0174933820963,0.00876595824957,,,,,,,,,,,,,,,,,,,,,,,,,,,,,,,,,,,,,,,,11.8087615967,12.305565834,-1.0,-1.0,,,,,,,,,,,8102236,PX4FMU_V1,unknown_git_version,test,305419904.0,,,,,,,,,,,,,,
0.0177542194724,0.00369156780653,2.5189948082,0.00652305549011,0.00614611851051,0.0237722285092,-0.175177454948,-0.282038927078,-9.76753425598,0.0,0.0,2.52897810936,0.0,-0.175177454948,-0.282038927078,-9.76753425598,0.00337523641065,-0.0022783097811,0.0475815236568,-0.202956497669,-0.126129895449,0.383513003588,1012.69000244,4.66255664825,39.6699981689,0.0,0.0,0.0,0.0,0.419082611799,0.0,0.0,0.209734082222,0.0,0.0,0.0,0,3,1,,,,,,,,,,,,,,,,-0.0123881865293,-0.00319864042103,-0.00206340127625,0.0,0,2,1.0,0,1,0.0,-0.0,0.0,1.0,0.99816006422,0.789473712444,-0.998161792755,-2.47105876656e+14,7,10.0,10.0,10.0,10.0,0.0,0.0,0.0,0.0,,,-0.0887706875801,-0.0184588097036,0.0100162206218,,,,,,,,,,,,,,,,,,,,,,,,,,,,,,,,,,,,,,,,11.7249526978,12.3044223785,-1.0,-1.0,,,,,,,,,,,8123365,PX4FMU_V1,unknown_git_version,test,305419904.0,,,,,,,,,,,,,,
0.0177440904081,0.00375810591504,2.51712870598,0.000887910486199,0.00524124549702,-0.0198499858379,-0.0207545962185,-0.106302067637,-9.52748966217,0.0,0.0,2.52897810936,0.0,-0.0207545962185,-0.106302067637,-9.52748966217,0.00547012174502,0.0109084229916,-0.0193178337067,-0.210295543075,-0.161083757877,0.391523957253,1012.73999023,4.24617195129,39.6800003052,0.0,0.0,0.0,0.0,0.418676376343,0.0,0.0,0.208389759064,0.0,0.0,0.0,0,3,1,,,,,,,,,,,,,,,,-0.0116490330547,-0.00312425824814,0.00475989934057,0.0,0,2,1.0,0,1,0.0,-0.0,0.0,1.0,1.0,0.789473712444,-0.998161792755,-2.47105876656e+14,7,10.0,10.0,10.0,10.0,0.0,0.0,0.0,0.0,,,-0.0887200385332,-0.0187915116549,0.0118826748803,,,,,,,,,,,,,,,,,,,,,,,,,,,,,,,,,,,,,,,,11.7417144775,12.3033313751,-1.0,-1.0,,,,,,,,,,,8145368,PX4FMU_V1,unknown_git_version,test,305419904.0,,,,,,,,,,,,,,
0.0178406536579,0.00378796597943,2.51631760597,0.00924589671195,0.0130037143826,0.00825104862452,0.283509790897,-0.0181736163795,-9.45319461823,0.0,0.0,2.52897810936,0.0,0.283509790897,-0.0181736163795,-9.45319461823,0.0161557495594,0.0251128822565,0.0156262218952,-0.184608876705,-0.141942352057,0.364820748568,1012.7199707,4.4127240181,39.6800003052,0.0,0.0,0.0,0.0,0.422560423613,0.0,0.0,0.209253519773,0.0,0.0,0.0,0,3,1,,,,,,,,,,,,,,,,-0.0127983335406,-0.0041527915746,0.000666494015604,0.0,0,2,1.0,0,1,0.0,-0.0,0.0,1.0,0.99816006422,0.789473712444,-0.998161792755,-2.47105876656e+14,7,10.0,10.0,10.0,10.0,0.0,0.0,0.0,0.0,,,-0.0892028287053,-0.0189408361912,0.0126943420619,,,,,,,,,,,,,,,,,,,,,,,,,,,,,,,,,,,,,,,,11.7584762573,12.3023090363,-1.0,-1.0,,,,,,,,,,,8166772,PX4FMU_V1,unknown_git_version,test,305419904.0,,,,,,,,,,,,,,
0.0179209839553,0.00397230312228,2.51771092415,0.017110761255,0.0089467279613,0.0189001746476,0.152452230453,0.0830435007811,-9.51840209961,0.0,0.0,2.52897810936,0.0,0.152452230453,0.0830435007811,-9.51840209961,0.0246024727821,0.00515165738761,0.0244448371232,-0.246073365211,-0.144439056516,0.393304169178,1012.70996094,4.49600076675,39.6800003052,0.0,0.0,0.0,0.0,0.423502027988,0.0,0.0,0.209021940827,0.0,0.0,0.0,0,3,1,,,,,,,,,,,,,,,,-0.0138729792088,-0.0037452110555,-0.00113961519673,0.0,0,2,1.0,0,1,0.0,-0.0,0.0,1.0,0.99816006422,0.789473712444,-0.998161792755,-2.47105876656e+14,7,10.0,10.0,10.0,10.0,0.0,0.0,0.0,0.0,,,-0.0896044671535,-0.019862588495,0.0113027403131,,,,,,,,,,,,,,,,,,,,,,,,,,,,,,,,,,,,,,,,11.7500953674,12.3012466431,-1.0,-1.0,,,,,,,,,,,8187990,PX4FMU_V1,unknown_git_version,test,305419904.0,,,,,,,,,,,,,,
0.0181379821151,0.00404016766697,2.51662945747,-0.0090867523104,-0.00324796722271,0.0142456917092,-0.0233812481165,0.0615524686873,-9.98529052734,0.0,0.0,2.52897810936,0.0,-0.0233812481165,0.0615524686873,-9.98529052734,-0.0243090745062,-0.0115540158004,0.0146893244237,-0.143326759338,-0.124465420842,0.386183291674,1012.72998047,4.32944774628,39.6800003052,0.0,0.0,0.0,0.0,0.425395041704,0.0,0.0,0.208801090717,0.0,0.0,0.0,0,3,1,,,,,,,,,,,,,,,,-0.0106083452702,-0.00220401585102,-0.000279041385511,0.0,0,2,1.0,0,1,0.0,-0.0,0.0,1.0,1.0,0.789473712444,-0.998161792755,-2.47105876656e+14,7,10.0,10.0,10.0,10.0,0.0,0.0,0.0,0.0,,,-0.0906894057989,-0.0202019363642,0.0123854158446,,,,,,,,,,,,,,,,,,,,,,,,,,,,,,,,,,,,,,,,11.7584762573,12.3007040024,-1.0,-1.0,,,,,,,,,,,8210098,PX4FMU_V1,unknown_git_version,test,305419904.0,,,,,,,,,,,,,,
0.0179492626339,0.00395929673687,2.51498436928,-0.001685345429,-0.00399273866788,-0.0268398690969,-0.03307402879,0.0020109731704,-9.81064224243,0.0,0.0,2.52897810936,0.0,-0.03307402879,0.0020109731704,-9.81064224243,0.00518142664805,-0.00111789628863,-0.014927668497,-0.181856736541,-0.157754823565,0.379062443972,1012.70996094,4.49600076675,39.6800003052,0.0,0.0,0.0,0.0,0.428235650063,0.0,0.0,0.209364533424,0.0,0.0,0.0,0,3,1,,,,,,,,,,,,,,,,-0.0114478655159,-0.00205462472513,0.00613036332652,0.0,0,2,1.0,0,1,0.0,-0.0,0.0,1.0,0.99816006422,0.791979968548,-0.998161792755,-2.47105876656e+14,7,10.0,10.0,10.0,10.0,0.0,0.0,0.0,0.0,,,-0.089745849371,-0.0197975449264,0.0140292188153,,,,,,,,,,,,,,,,,,,,,,,,,,,,,,,,,,,,,,,,11.7417144775,12.2996282578,-1.0,-1.0,,,,,,,,,,,8231316,PX4FMU_V1,unknown_git_version,test,305419904.0,,,,,,,,,,,,,,
0.0180017799139,0.00399176590145,2.51428508759,0.00284881913103,0.00572326639667,0.00610550772399,-0.0595546513796,0.0781834796071,-9.71374511719,0.0,0.0,2.52897810936,0.0,-0.0595546513796,0.0781834796071,-9.71374511719,0.00401033600792,0.00173916586209,-0.0136269684881,-0.184608876705,-0.17023833096,0.389743715525,1012.73999023,4.24617195129,39.6699981689,0.0,0.0,0.0,0.0,0.429727733135,0.0,0.0,0.208893954754,0.0,0.0,0.0,0,3,1,,,,,,,,,,,,,,,,-0.0120714409277,-0.00333881238475,0.00129352672957,0.0,0,2,1.0,0,1,0.0,-0.0,0.0,1.0,0.99816006422,0.789473712444,-0.998161792755,-2.47105876656e+14,7,10.0,10.0,10.0,10.0,0.0,0.0,0.0,0.0,,,-0.0900084227324,-0.0199599079788,0.0147290192544,,,,,,,,,,,,,,,,,,,,,,,,,,,,,,,,,,,,,,,,11.7919998169,12.2985715866,-1.0,-1.0,,,,,,,,,,,8253713,PX4FMU_V1,unknown_git_version,test,305419904.0,,,,,,,,,,,,,,
0.0180066563189,0.00395332463086,2.5121254921,0.000673164788168,0.000821940077003,0.0180285908282,-0.15307533741,0.194339543581,-9.79082775116,0.0,0.0,2.52897810936,0.0,-0.15307533741,0.194339543581,-9.79082775116,0.00249782577157,0.0038463040255,0.0257882662117,-0.224056243896,-0.206024438143,0.387963503599,1012.70996094,4.49600076675,39.6699981689,0.0,0.0,0.0,0.0,0.432711333036,0.0,0.0,0.209298029542,0.0,0.0,0.0,0,3,1,,,,,,,,,,,,,,,,-0.0117917796597,-0.00267665274441,-0.000171067658812,0.0,0,2,1.0,0,1,0.0,-0.0,0.0,1.0,1.0,0.789473712444,-0.998161792755,-2.47105876656e+14,7,10.0,10.0,10.0,10.0,0.0,0.0,0.0,0.0,,,-0.0900328308344,-0.0197676960379,0.0168881397694,,,,,,,,,,,,,,,,,,,,,,,,,,,,,,,,,,,,,,,,11.7500953674,12.2975082397,-1.0,-1.0,,,,,,,,,,,8274551,PX4FMU_V1,unknown_git_version,test,305419904.0,,,,,,,,,,,,,,
0.0181013625115,0.00401872117072,2.51279640198,0.00297738797963,0.002880879445,0.000721102580428,0.0867980867624,-0.143718272448,-9.72463226318,0.0,0.0,2.52897810936,0.0,0.0867980867624,-0.143718272448,-9.72463226318,-0.00431003049016,-0.00326014007442,-0.00683572608978,-0.200204342604,-0.124465420842,0.383513003588,1012.67999268,4.74583530426,39.6699981689,0.0,0.0,0.0,0.0,0.431925058365,0.0,0.0,0.208318457007,0.0,0.0,0.0,0,3,1,,,,,,,,,,,,,,,,-0.0121528822929,-0.00298682646826,0.00232453923672,0.0,0,2,1.0,0,1,0.0,-0.0,0.0,1.0,0.99816006422,0.789473712444,-0.998161792755,-2.47105876656e+14,7,10.0,10.0,10.0,10.0,0.0,0.0,0.0,0.0,,,-0.0905063301325,-0.0200947094709,0.0162180308253,,,,,,,,,,,,,,,,,,,,,,,,,,,,,,,,,,,,,,,,11.783618927,12.2969942093,-1.0,-1.0,,,,,,,,,,,8295837,PX4FMU_V1,unknown_git_version,test,305419904.0,,,,,,,,,,,,,,
0.0180823300034,0.00397684099153,2.51042413712,0.00453425617889,0.00370096880943,0.0111155156046,-0.0779333114624,-0.158227771521,-9.70562553406,0.0,0.0,2.52897810936,0.0,-0.0779333114624,-0.158227771521,-9.70562553406,0.0035821411293,0.00407440541312,0.00510851899162,-0.230477899313,-0.203527733684,0.386183291674,1012.69995117,4.57927846909,39.6800003052,0.0,0.0,0.0,0.0,0.432829886675,0.0,0.0,0.207776769996,0.0,0.0,0.0,0,3,1,,,,,,,,,,,,,,,,-0.0123429056257,-0.0030662145,0.00112115475349,0.0,0,2,1.0,0,1,0.0,-0.0,0.0,1.0,1.0,0.789473712444,-0.998161792755,-2.47105876656e+14,7,10.0,10.0,10.0,10.0,0.0,0.0,0.0,0.0,,,-0.0904111713171,-0.0198852978647,0.0185898803174,,,,,,,,,,,,,,,,,,,,,,,,,,,,,,,,,,,,,,,,11.7584762573,12.2959260941,-1.0,-1.0,,,,,,,,,,,8317775,PX4FMU_V1,unknown_git_version,test,305419904.0,,,,,,,,,,,,,,
0.0181082524359,0.00399929611012,2.51174020767,0.00365602015518,0.00317944958806,0.00623981934041,0.0478550568223,-0.0740925744176,-9.6767616272,0.0,0.0,2.52897810936,0.0,0.0478550568223,-0.0740925744176,-9.6767616272,0.00176885921974,0.00279997126199,0.00656620413065,-0.174517691135,-0.0961694419384,0.387963503599,1012.66998291,4.82911491394,39.6800003052,0.0,0.0,0.0,0.0,0.431727617979,0.0,0.0,0.206173717976,0.0,0.0,0.0,0,3,1,,,,,,,,,,,,,,,,-0.0122455861419,-0.00301301386207,0.00165512494277,0.0,0,2,1.0,0,1,0.0,-0.0,0.0,1.0,1.0,0.789473712444,-0.998161792755,-2.47105876656e+14,7,10.0,10.0,10.0,10.0,0.0,0.0,0.0,0.0,,,-0.0905407965183,-0.0199975818396,0.0172739848495,,,,,,,,,,,,,,,,,,,,,,,,,,,,,,,,,,,,,,,,11.7919998169,12.2948846817,-1.0,-1.0,,,,,,,,,,,8339257,PX4FMU_V1,unknown_git_version,test,305419904.0,,,,,,,,,,,,,,
0.0180806536227,0.00399468140677,2.50721597672,0.0040261275135,0.00482625095174,0.0117863137275,-0.16146889329,0.134024694562,-9.83926486969,0.0,0.0,2.52897810936,0.0,-0.16146889329,0.134024694562,-9.83926486969,0.00877066701651,0.00840474665165,0.0152855524793,-0.20662599802,-0.188547506928,0.378172367811,1012.72998047,4.32944774628,39.6800003052,0.0,0.0,0.0,0.0,0.431086838245,0.0,0.0,0.204963326454,0.0,0.0,0.0,0,3,1,,,,,,,,,,,,,,,,-0.0122757581994,-0.00322409672663,0.00150180410128,0.0,0,2,1.0,0,1,0.0,-0.0,0.0,1.0,1.0,0.789473712444,-0.998161792755,-2.47105876656e+14,7,10.0,10.0,10.0,10.0,0.0,0.0,0.0,0.0,,,-0.0904027819633,-0.0199744943529,0.0217983406037,,,,,,,,,,,,,,,,,,,,,,,,,,,,,,,,,,,,,,,,11.783618927,12.2938375473,-1.0,-1.0,,,,,,,,,,,8360273,PX4FMU_V1,unknown_git_version,test,305419904.0,,,,,,,,,,,,,,
0.0181100722402,0.0040364889428,2.50545907021,0.0024245637469,0.00345359812491,0.00676245894283,-0.0504523590207,0.0563251152635,-9.70405387878,0.0,0.0,2.52897810936,0.0,-0.0504523590207,0.0563251152635,-9.70405387878,0.00443906057626,0.00552832894027,0.0137803703547,-0.190113157034,-0.164412692189,0.377282261848,1012.70996094,4.49600076675,39.6800003052,0.0,0.0,0.0,0.0,0.433607250452,0.0,0.0,0.205125331879,0.0,0.0,0.0,0,3,1,,,,,,,,,,,,,,,,-0.0120866755024,-0.00307282921858,0.00251898611896,0.0,0,2,1.0,0,1,0.0,-0.0,0.0,1.0,0.99816006422,0.789473712444,-0.998161792755,-2.47105876656e+14,7,10.0,10.0,10.0,10.0,0.0,0.0,0.0,0.0,,,-0.0905498713255,-0.0201835520566,0.0235556978732,,,,,,,,,,,,,,,,,,,,,,,,,,,,,,,,,,,,,,,,11.7752380371,12.2928180695,-1.0,-1.0,,,,,,,,,,,8381968,PX4FMU_V1,unknown_git_version,test,305419904.0,,,,,,,,,,,,,,
0.0181580893695,0.00407846318558,2.50445747375,0.00177240057383,0.00284733111039,0.00898361764848,-0.0641558617353,-0.0380619429052,-9.76386070251,0.0,0.0,2.52897810936,0.0,-0.0641558617353,-0.0380619429052,-9.76386070251,-0.00112198363058,0.00129604327958,0.00343553954735,-0.179104611278,-0.159419283271,0.382622867823,1012.70996094,4.49600076675,39.6800003052,0.0,0.0,0.0,0.0,0.434270113707,0.0,0.0,0.204934254289,0.0,0.0,0.0,0,3,1,,,,,,,,,,,,,,,,-0.0120331058279,-0.00302129914053,0.00233613094315,0.0,0,2,1.0,0,1,0.0,-0.0,0.0,1.0,1.0,0.789473712444,-0.998161792755,-2.47105876656e+14,7,10.0,10.0,10.0,10.0,0.0,0.0,0.0,0.0,,,-0.0907899513841,-0.0203934330493,0.0245578233153,,,,,,,,,,,,,,,,,,,,,,,,,,,,,,,,,,,,,,,,11.783618927,12.2923088074,-1.0,-1.0,,,,,,,,,,,8402591,PX4FMU_V1,unknown_git_version,test,305419904.0,,,,,,,,,,,,,,
0.018179345876,0.00408301828429,2.50164294243,0.00466453982517,0.00442104460672,0.00461187539622,-0.0896024927497,-0.158817842603,-9.72554588318,0.0,0.0,2.52897810936,0.0,-0.0896024927497,-0.158817842603,-9.72554588318,0.00445567583665,0.00534071633592,0.00307570002042,-0.163509145379,-0.151929184794,0.423567771912,1012.70996094,4.49600076675,39.6800003052,0.0,0.0,0.0,0.0,0.437592387199,0.0,0.0,0.205658942461,0.0,0.0,0.0,0,3,1,,,,,,,,,,,,,,,,-0.0124228987843,-0.00322884460911,0.00341405766085,0.0,0,2,1.0,0,1,0.0,-0.0,0.0,1.0,1.0,0.789473712444,-0.998161792755,-2.47105876656e+14,7,10.0,10.0,10.0,10.0,0.0,0.0,0.0,0.0,,,-0.0908962264657,-0.0204162225127,0.0273722596467,,,,,,,,,,,,,,,,,,,,,,,,,,,,,,,,,,,,,,,,11.783618927,12.2913169861,-1.0,-1.0,,,,,,,,,,,8423819,PX4FMU_V1,unknown_git_version,test,305419904.0,,,,,,,,,,,,,,
0.0181982573122,0.00409847078845,2.50052332878,0.00280865142122,0.0014829459833,0.00218018144369,-0.243495732546,-0.0863477215171,-9.72112083435,0.0,0.0,2.52897810936,0.0,-0.243495732546,-0.0863477215171,-9.72112083435,0.000609215698205,0.000969137472566,-0.00644171610475,-0.158922225237,-0.136116713285,0.40131509304,1012.69995117,4.57927846909,39.6800003052,0.0,0.0,0.0,0.0,0.438374221325,0.0,0.0,0.205235868692,0.0,0.0,0.0,0,3,1,,,,,,,,,,,,,,,,-0.0121939275414,-0.0028569358401,0.00394679233432,0.0,0,2,1.0,0,1,0.0,-0.0,0.0,1.0,0.99816006422,0.791979968548,-0.998161792755,-2.47105876656e+14,7,10.0,10.0,10.0,10.0,0.0,0.0,0.0,0.0,,,-0.0909907966852,-0.0204934831709,0.0284921303391,,,,,,,,,,,,,,,,,,,,,,,,,,,,,,,,,,,,,,,,11.8003807068,12.2903108597,-1.0,-1.0,,,,,,,,,,,8445909,PX4FMU_V1,unknown_git_version,test,305419904.0,,,,,,,,,,,,,,
0.0182358268648,0.00414633518085,2.49672436714,0.00521985115483,0.00469401013106,0.0100187109783,-0.147933453321,-0.134132012725,-9.71268081665,0.0,0.0,2.52897810936,0.0,-0.147933453321,-0.134132012725,-9.71268081665,0.00543363112956,0.00439523020759,0.014646269381,-0.202956497669,-0.189379736781,0.370161414146,1012.70996094,4.49600076675,39.6699981689,0.0,0.0,0.0,0.0,0.439139246941,0.0,0.0,0.204971730709,0.0,0.0,0.0,0,3,1,,,,,,,,,,,,,,,,-0.0125318029895,-0.00330548849888,0.00334092439152,0.0,0,2,1.0,0,1,0.0,-0.0,0.0,0.950495064259,1.0,0.789473712444,-0.998161792755,-2.47105876656e+14,7,10.0,10.0,10.0,10.0,0.0,0.0,0.0,0.0,,,-0.0911786332726,-0.020732825622,0.0322915390134,,,,,,,,,,,,,,,,,,,,,,,,,,,,,,,,,,,,,,,,11.7752380371,12.28931427,-1.0,-1.0,,,,,,,,,,,8467231,PX4FMU_V1,unknown_git_version,test,305419904.0,,,,,,,,,,,,,,
0.0182646848261,0.00421232357621,2.49871277809,0.00183154665865,0.00387031421997,0.0110801300034,-0.0413071587682,-0.141790121794,-9.70233154297,0.0,0.0,2.52897810936,0.0,-0.0413071587682,-0.141790121794,-9.70233154297,-0.00125462736469,0.000445686862804,0.00802372395992,-0.245155975223,-0.130291074514,0.375502020121,1012.69000244,4.66255664825,39.6699981689,0.0,0.0,0.0,0.0,0.439264923334,0.0,0.0,0.204688116908,0.0,0.0,0.0,0,3,1,,,,,,,,,,,,,,,,-0.0121100759134,-0.00324130337685,0.00288353185169,0.0,0,2,1.0,0,1,0.0,-0.0,0.0,0.769801974297,1.0,0.789473712444,-0.998161792755,-2.47105876656e+14,7,10.0,10.0,10.0,10.0,0.0,0.0,0.0,0.0,,,-0.0913228839636,-0.0210627894849,0.0303036738187,,,,,,,,,,,,,,,,,,,,,,,,,,,,,,,,,,,,,,,,11.8087615967,12.2888336182,-1.0,-1.0,,,,,,,,,,,8488298,PX4FMU_V1,unknown_git_version,test,305419904.0,,,,,,,,,,,,,,
0.0182410813868,0.00420964928344,2.49908733368,0.00345973437652,0.00545176258311,0.00560223590583,0.010583775118,-0.0427617654204,-9.68007659912,0.0,0.0,2.52897810936,0.0,0.010583775118,-0.0427617654204,-9.68007659912,0.00229323236272,0.00452248845249,0.00435335049406,-0.253412395716,-0.115310840309,0.385293215513,1012.72998047,4.32944774628,39.6800003052,0.0,0.0,0.0,0.0,0.438497364521,0.0,0.0,0.203590095043,0.0,0.0,0.0,0,3,1,,,,,,,,,,,,,,,,-0.0123063987121,-0.00344515242614,0.00364904268645,0.0,0,2,1.0,0,1,0.0,-0.0,0.0,0.477722764015,1.0,0.789473712444,-0.998161792755,-2.47105876656e+14,7,10.0,10.0,10.0,10.0,0.0,0.0,0.0,0.0,,,-0.0912048742175,-0.0210494101048,0.0299291871488,,,,,,,,,,,,,,,,,,,,,,,,,,,,,,,,,,,,,,,,11.8255233765,12.2879247665,-1.0,-1.0,,,,,,,,,,,8510357,PX4FMU_V1,unknown_git_version,test,305419904.0,,,,,,,,,,,,,,
0.0182285215706,0.00422341469675,2.5000808239,0.00197009951808,0.00214726873673,-0.000516121683177,-0.163045153022,0.096897855401,-9.750831604,0.0,0.0,2.52897810936,0.0,-0.163045153022,0.096897855401,-9.750831604,0.0032488994766,0.00226033455692,-0.00279807439074,-0.229560509324,-0.141110122204,0.393304169178,1012.7199707,4.4127240181,39.6800003052,0.0,0.0,0.0,0.0,0.441372901201,0.0,0.0,0.204182103276,0.0,0.0,0.0,0,3,1,,,,,,,,,,,,,,,,-0.0121045820415,-0.00302451639436,0.0044177849777,0.0,0,2,1.0,0,1,0.0,-0.0,0.0,0.477722764015,1.0,0.789473712444,-0.998161792755,-2.47105876656e+14,7,10.0,10.0,10.0,10.0,0.0,0.0,0.0,0.0,,,-0.0911420732737,-0.0211182422936,0.0289357751608,,,,,,,,,,,,,,,,,,,,,,,,,,,,,,,,,,,,,,,,11.8590478897,12.2870178223,-1.0,-1.0,,,,,,,,,,,8531703,PX4FMU_V1,unknown_git_version,test,305419904.0,,,,,,,,,,,,,,
0.0183148514479,0.00434157578275,2.49933242798,0.00696160178632,0.00811293534935,0.0209690071642,0.159964799881,-0.227631360292,-9.69027328491,0.0,0.0,2.52897810936,0.0,0.159964799881,-0.227631360292,-9.69027328491,0.00731114670634,0.00700294831768,0.0207126084715,-0.257081925869,-0.13445225358,0.379952549934,1012.67999268,4.74583530426,39.6800003052,0.0,0.0,0.0,0.0,0.440221071243,0.0,0.0,0.202745392919,0.0,0.0,0.0,0,3,1,,,,,,,,,,,,,,,,-0.0128095848486,-0.0038768639788,0.0013074525632,0.0,0,2,1.0,0,1,0.0,-0.0,0.0,0.0272277221084,0.99816006422,0.789473712444,-0.998161792755,-2.47105876656e+14,7,10.0,10.0,10.0,10.0,0.0,0.0,0.0,0.0,,,-0.0915736705065,-0.0217090956867,0.0296853575855,,,,,,,,,,,,,,,,,,,,,,,,,,,,,,,,,,,,,,,,11.8087615967,12.2860536575,-1.0,-1.0,,,,,,,,,,,8554060,PX4FMU_V1,unknown_git_version,test,305419904.0,,,,,,,,,,,,,,
0.0181962810457,0.00421334477141,2.4994764328,-0.00267011020333,-0.000992541317828,0.00275028101169,-0.161487460136,0.0768580064178,-9.83908843994,0.0,0.0,2.52897810936,0.0,-0.161487460136,0.0768580064178,-9.83908843994,0.000901895342395,0.00447809044272,-0.00079335499322,-0.179104611278,-0.159419283271,0.368381172419,1012.7199707,4.4127240181,39.6800003052,0.0,0.0,0.0,0.0,0.441101998091,0.0,0.0,0.20253315568,0.0,0.0,0.0,0,3,1,,,,,,,,,,,,,,,,-0.0114803975448,-0.0026097947266,0.00401846319437,0.0,0,2,1.0,0,1,0.0,-0.0,0.0,0.0272277221084,0.99816006422,0.789473712444,-0.998161792755,-2.47105876656e+14,7,10.0,10.0,10.0,10.0,0.0,0.0,0.0,0.0,,,-0.0909808650613,-0.0210678875446,0.0295400358737,,,,,,,,,,,,,,,,,,,,,,,,,,,,,,,,,,,,,,,,11.8758096695,12.2852249146,-1.0,-1.0,,,,,,,,,,,8574993,PX4FMU_V1,unknown_git_version,test,305419904.0,,,,,,,,,,,,,,
0.0182970631868,0.00432270439342,2.49763870239,0.00832203868777,0.00837480276823,0.00495128333569,0.216316223145,-0.0931161642075,-9.74408531189,0.0,0.0,2.52897810936,0.0,0.216316223145,-0.0931161642075,-9.74408531189,0.00455728871748,0.00634169252589,-0.00138818111736,-0.211212918162,-0.173567280173,0.38173276186,1012.7199707,4.4127240181,39.6800003052,0.0,0.0,0.0,0.0,0.442159414291,0.0,0.0,0.20260001719,0.0,0.0,0.0,0,3,1,,,,,,,,,,,,,,,,-0.0129748824984,-0.00389863923192,0.00396415870637,0.0,0,2,1.0,0,1,0.0,-0.0,0.0,0.0272277221084,1.0,0.789473712444,-0.998161792755,-2.47105876656e+14,7,10.0,10.0,10.0,10.0,0.0,0.0,0.0,0.0,,,-0.0914847552776,-0.0216147303581,0.031379006803,,,,,,,,,,,,,,,,,,,,,,,,,,,,,,,,,,,,,,,,11.8003807068,12.284740448,-1.0,-1.0,,,,,,,,,,,8596289,PX4FMU_V1,unknown_git_version,test,305419904.0,,,,,,,,,,,,,,
0.0182896275073,0.00433145323768,2.49683427811,0.00185195519589,0.00584750482813,0.0117532350123,0.246724441648,-0.0273010917008,-9.64308357239,0.0,0.0,2.52897810936,0.0,0.246724441648,-0.0273010917008,-9.64308357239,0.00301339058205,0.00833062268794,0.0187472160906,-0.209378153086,-0.166909396648,0.38440310955,1012.7199707,4.4127240181,39.6800003052,0.0,0.0,0.0,0.0,0.44433966279,0.0,0.0,0.202790111303,0.0,0.0,0.0,0,3,1,,,,,,,,,,,,,,,,-0.0121289361268,-0.00357577600516,0.00306452345103,0.0,0,2,1.0,0,1,0.0,-0.0,0.0,0.0272277221084,0.99816006422,0.791979968548,-0.998161792755,-2.47105876656e+14,7,10.0,10.0,10.0,10.0,0.0,0.0,0.0,0.0,,,-0.0914475619793,-0.0216584652662,0.0321833901107,,,,,,,,,,,,,,,,,,,,,,,,,,,,,,,,,,,,,,,,11.9009523392,12.2839317322,-1.0,-1.0,,,,,,,,,,,8618549,PX4FMU_V1,unknown_git_version,test,305419904.0,,,,,,,,,,,,,,
0.0182108338922,0.00428103096783,2.49776172638,-0.00768974097446,-0.00861754640937,0.0115436809137,-0.0980111211538,0.0262407772243,-9.83950519562,0.0,0.0,2.52897810936,0.0,-0.0980111211538,0.0262407772243,-9.83950519562,-0.0134051432833,-0.0167138837278,0.0046603763476,-0.237816929817,-0.1535936445,0.366600960493,1012.65997314,4.91239547729,39.6800003052,0.0,0.0,0.0,0.0,0.445478528738,0.0,0.0,0.202363714576,0.0,0.0,0.0,0,3,1,,,,,,,,,,,,,,,,-0.0108373044059,-0.00166254374199,0.00295674265362,0.0,0,2,1.0,0,1,0.0,-0.0,0.0,0.0272277221084,0.99816006422,0.789473712444,-0.998161792755,-2.47105876656e+14,7,10.0,10.0,10.0,10.0,0.0,0.0,0.0,0.0,,,-0.0910536274314,-0.0214063450694,0.0312552973628,,,,,,,,,,,,,,,,,,,,,,,,,,,,,,,,,,,,,,,,11.9009523392,12.2831745148,-1.0,-1.0,,,,,,,,,,,8639442,PX4FMU_V1,unknown_git_version,test,305419904.0,,,,,,,,,,,,,,
0.0182577781379,0.00432502897456,2.4950158596,0.0215553529561,0.025306109339,-0.00773574598134,0.220983073115,-0.118823155761,-9.76054573059,0.0,0.0,2.52897810936,0.0,0.220983073115,-0.118823155761,-9.76054573059,0.0356022045016,0.0410580001771,0.0120690707117,-0.181856736541,-0.184386327863,0.377282261848,1012.72998047,4.32944774628,39.6899986267,0.0,0.0,0.0,0.0,0.442705988884,0.0,0.0,0.199960261583,0.0,0.0,0.0,0,3,1,,,,,,,,,,,,,,,,-0.0146696772426,-0.00610121851787,0.00626061344519,0.0,0,2,1.0,0,1,0.0,-0.0,0.0,0.0272277221084,0.99816006422,0.789473712444,-0.998161792755,-2.47105876656e+14,7,10.0,10.0,10.0,10.0,0.0,0.0,0.0,0.0,,,-0.0912883281708,-0.021626342088,0.0340016745031,,,,,,,,,,,,,,,,,,,,,,,,,,,,,,,,,,,,,,,,11.917714119,12.2824354172,-1.0,-1.0,,,,,,,,,,,8660715,PX4FMU_V1,unknown_git_version,test,305419904.0,,,,,,,,,,,,,,
0.0181406289339,0.0040876227431,2.49342465401,-0.0302419196814,-0.0301021188498,-0.00431451946497,-1.26403021812,0.218181803823,-9.94610977173,0.0,0.0,2.52897810936,0.0,-1.26403021812,0.218181803823,-9.94610977173,-0.0413016527891,-0.0294126048684,-0.0520862489939,-0.204791232944,-0.186883032322,0.377282261848,1012.7199707,4.4127240181,39.6899986267,0.0,0.0,0.0,0.0,0.44529658556,0.0,0.0,0.200406387448,0.0,0.0,0.0,0,3,1,,,,,,,,,,,,,,,,-0.00785989034921,0.00125617498998,0.00598574522883,0.0,0,2,1.0,0,1,0.0,-0.0,0.0,0.0272277221084,0.99816006422,0.791979968548,-0.998161792755,-2.47105876656e+14,7,10.0,10.0,10.0,10.0,0.0,0.0,0.0,0.0,,,-0.0907026156783,-0.0204392336309,0.0355904474854,,,,,,,,,,,,,,,,,,,,,,,,,,,,,,,,,,,,,,,,11.9344758987,12.2817316055,-1.0,-1.0,,,,,,,,,,,8682528,PX4FMU_V1,unknown_git_version,test,305419904.0,,,,,,,,,,,,,,
0.0182934589684,0.00477106356993,2.49120545387,0.0358408801258,0.0371250808239,0.0298259053379,1.57955813408,-0.00165899284184,-9.76063919067,0.0,0.0,2.52897810936,0.0,1.57955813408,-0.00165899284184,-9.76063919067,0.0478207916021,0.0276724770665,0.0806635320187,-0.183691501617,-0.157754823565,0.361260324717,1012.67999268,4.74583530426,39.6899986267,0.0,0.0,0.0,0.0,0.444317638874,0.0,0.0,0.199290961027,0.0,0.0,0.0,0,3,1,,,,,,,,,,,,,,,,-0.0165499728173,-0.00792762450874,0.00119855045341,0.0,0,2,1.0,0,1,0.0,-0.0,0.0,0.0272277221084,0.99816006422,0.789473712444,-0.998161792755,-2.47105876656e+14,7,10.0,10.0,10.0,10.0,0.0,0.0,0.0,0.0,,,-0.0914666131139,-0.02385664545,0.0378162413836,,,,,,,,,,,,,,,,,,,,,,,,,,,,,,,,,,,,,,,,11.9428567886,12.2813930511,-1.0,-1.0,,,,,,,,,,,8703060,PX4FMU_V1,unknown_git_version,test,305419904.0,,,,,,,,,,,,,,
0.0183945950121,0.00409295922145,2.49150466919,-0.0171253476292,-0.00612584641203,-0.00289020501077,-0.726581513882,-0.0448045134544,-9.88746356964,0.0,0.0,2.52897810936,0.0,-0.726581513882,-0.0448045134544,-9.88746356964,-0.0275901257992,0.0228376500309,-0.0397556349635,-0.191947922111,-0.146103531122,0.360370218754,1012.70996094,4.49600076675,39.6800003052,0.0,0.0,0.0,0.0,0.443340599537,0.0,0.0,0.197663918138,0.0,0.0,0.0,0,3,1,,,,,,,,,,,,,,,,-0.00973012577742,-0.00186421303079,0.0060601811856,0.0,0,2,1.0,0,1,0.0,-0.0,0.0,0.0272277221084,0.99816006422,0.789473712444,-0.998161792755,-2.47105876656e+14,7,10.0,10.0,10.0,10.0,0.0,0.0,0.0,0.0,,,-0.0919724702835,-0.0204659476876,0.0375109985471,,,,,,,,,,,,,,,,,,,,,,,,,,,,,,,,,,,,,,,,11.9428567886,12.2807159424,-1.0,-1.0,,,,,,,,,,,8724302,PX4FMU_V1,unknown_git_version,test,305419904.0,,,,,,,,,,,,,,
0.0180718787014,0.00400158297271,2.49137401581,-0.00497834663838,-0.012404887937,0.00802048109472,-2.31277489662,-0.361060023308,-9.99375343323,0.0,0.0,2.52897810936,0.0,-2.31277489662,-0.361060023308,-9.99375343323,-0.00154116784688,0.00681977625936,-0.00268709240481,-0.217634573579,-0.168573871255,0.36571085453,1012.70996094,4.49600076675,39.6800003052,0.0,0.0,0.0,0.0,0.442349016666,0.0,0.0,0.196264714003,0.0,0.0,0.0,0,3,1,,,,,,,,,,,,,,,,-0.0110994745046,-0.000988534768112,0.00444297445938,0.0,0,2,1.0,0,1,0.0,-0.0,0.0,0.0272277221084,0.99816006422,0.791979968548,-0.998161792755,-2.47105876656e+14,7,10.0,10.0,10.0,10.0,0.0,0.0,0.0,0.0,,,-0.0903589203954,-0.020009001717,0.0376403108239,,,,,,,,,,,,,,,,,,,,,,,,,,,,,,,,,,,,,,,,11.9512376785,12.2800579071,-1.0,-1.0,,,,,,,,,,,8746716,PX4FMU_V1,unknown_git_version,test,305419904.0,,,,,,,,,,,,,,
0.0182882994413,0.00488376012072,2.4890859127,0.030171006918,0.018639549613,0.0368908084929,0.36017742753,-0.252974927425,-9.72128200531,0.0,0.0,2.52897810936,0.0,0.36017742753,-0.252974927425,-9.72128200531,0.03709269315,-0.0124902650714,0.0607031919062,-0.201121732593,-0.166077166796,0.361260324717,1012.73999023,4.24617195129,39.6800003052,0.0,0.0,0.0,0.0,0.443827986717,0.0,0.0,0.195690318942,0.0,0.0,0.0,0,3,1,,,,,,,,,,,,,,,,-0.0158095285296,-0.00559776090086,0.000456914334791,0.0,0,2,1.0,0,1,0.0,-0.0,0.0,0.0272277221084,1.0,0.789473712444,-0.998161792755,-2.47105876656e+14,7,10.0,10.0,10.0,10.0,0.0,0.0,0.0,0.0,,,-0.0914407595992,-0.024420151487,0.0399369038641,,,,,,,,,,,,,,,,,,,,,,,,,,,,,,,,,,,,,,,,12.2613334656,12.2798366547,-1.0,-1.0,,,,,,,,,,,8767507,PX4FMU_V1,unknown_git_version,test,305419904.0,,,,,,,,,,,,,,
0.0184735078365,0.00490030506626,2.48688077927,0.00250240485184,0.0168678276241,0.0170918442309,1.76349937916,0.270311355591,-9.75757217407,0.0,0.0,2.52897810936,0.0,1.76349937916,0.270311355591,-9.75757217407,-0.00361030595377,0.00939637422562,0.00727473059669,-0.164426535368,-0.146935760975,0.334557116032,1012.69995117,4.57927846909,39.6800003052,0.0,0.0,0.0,0.0,0.445176780224,0.0,0.0,0.196170330048,0.0,0.0,0.0,0,3,1,,,,,,,,,,,,,,,,-0.0123329963535,-0.00537819694728,0.0037576018367,0.0,0,2,1.0,0,1,0.0,-0.0,0.0,0.0272277221084,1.0,0.789473712444,-0.998161792755,-2.47105876656e+14,7,10.0,10.0,10.0,10.0,0.0,0.0,0.0,0.0,,,-0.0923667997122,-0.0245029181242,0.04214252159,,,,,,,,,,,,,,,,,,,,,,,,,,,,,,,,,,,,,,,,12.2780952454,12.2798347473,-1.0,-1.0,,,,,,,,,,,8788804,PX4FMU_V1,unknown_git_version,test,305419904.0,,,,,,,,,,,,,,
0.0183725077659,0.00436331564561,2.48324322701,0.00370751298033,0.0159046165645,0.00243826163933,-0.348143696785,0.519248962402,-10.1894712448,0.0,0.0,2.52897810936,0.0,-0.348143696785,0.519248962402,-10.1894712448,0.0206186100841,0.0655364766717,-0.0178390555084,-0.158922225237,-0.19187644124,0.32743626833,1012.69995117,4.57927846909,39.6800003052,0.0,0.0,0.0,0.0,0.445136189461,0.0,0.0,0.195450782776,0.0,0.0,0.0,0,3,1,,,,,,,,,,,,,,,,-0.0124240294099,-0.00490391394123,0.00650048628449,0.0,0,2,1.0,0,1,0.0,-0.0,0.0,0.0272277221084,0.99816006422,0.789473712444,-0.998161792755,-2.47105876656e+14,7,10.0,10.0,10.0,10.0,0.0,0.0,0.0,0.0,,,-0.0918619483709,-0.0218177996576,0.0457748360932,,,,,,,,,,,,,,,,,,,,,,,,,,,,,,,,,,,,,,,,12.2780952454,12.2798223495,-1.0,-1.0,,,,,,,,,,,8811316,PX4FMU_V1,unknown_git_version,test,305419904.0,,,,,,,,,,,,,,
0.0187549572438,0.00480131851509,2.48073077202,0.00110726570711,-0.0202305167913,0.0320796296,-0.949066162109,-0.868070960045,-9.70055770874,0.0,0.0,2.52897810936,0.0,-0.949066162109,-0.868070960045,-9.70055770874,-0.0265985429287,-0.0525403171778,0.0285771563649,-0.148831069469,-0.179392918944,0.322095632553,1012.72998047,4.32944774628,39.6800003052,0.0,0.0,0.0,0.0,0.446566015482,0.0,0.0,0.195117682219,0.0,0.0,0.0,0,3,1,,,,,,,,,,,,,,,,-0.01233457122,-0.000491072365548,0.00243190932088,0.0,0,2,1.0,0,1,0.0,-0.0,0.0,0.0272277221084,0.99816006422,0.789473712444,-0.998161792755,-2.47105876656e+14,7,10.0,10.0,10.0,10.0,0.0,0.0,0.0,0.0,,,-0.0937740504742,-0.0240079965442,0.0482923574746,,,,,,,,,,,,,,,,,,,,,,,,,,,,,,,,,,,,,,,,12.2780952454,12.2798185349,-1.0,-1.0,,,,,,,,,,,8832238,PX4FMU_V1,unknown_git_version,test,305419904.0,,,,,,,,,,,,,,
0.018525864929,0.00491484208032,2.4768204689,0.0165373235941,0.0264226216823,-0.00559964124113,1.16408360004,-0.122906699777,-9.63945674896,0.0,0.0,2.52897810936,0.0,1.16408360004,-0.122906699777,-9.63945674896,0.0335759706795,0.0302885938436,0.0189743172377,-0.133235603571,-0.156090334058,0.339007675648,1012.7199707,4.4127240181,39.6800003052,0.0,0.0,0.0,0.0,0.448841243982,0.0,0.0,0.195514410734,0.0,0.0,0.0,0,3,1,,,,,,,,,,,,,,,,-0.0141915697604,-0.00662977108732,0.00867043063045,0.0,0,2,1.0,0,1,0.0,-0.0,0.0,0.0272277221084,1.0,0.789473712444,-0.998161792755,-2.47105876656e+14,7,10.0,10.0,10.0,10.0,0.0,0.0,0.0,0.0,,,-0.0926285982132,-0.0245756208897,0.0522032268345,,,,,,,,,,,,,,,,,,,,,,,,,,,,,,,,,,,,,,,,12.2780952454,12.2798147202,-1.0,-1.0,,,,,,,,,,,8853355,PX4FMU_V1,unknown_git_version,test,305419904.0,,,,,,,,,,,,,,
0.0183474123478,0.00452603492886,2.4749789238,-0.00827843789011,-0.000757581612561,-0.0187045838684,-0.452740520239,0.689202725887,-9.75810050964,0.0,0.0,2.52897810936,0.0,-0.452740520239,0.689202725887,-9.75810050964,0.00942264869809,0.0197118911892,-0.0511750988662,-0.225891008973,-0.182721868157,0.328326374292,1012.75994873,4.07962274551,39.6899986267,0.0,0.0,0.0,0.0,0.452774167061,0.0,0.0,0.196916475892,0.0,0.0,0.0,0,3,1,,,,,,,,,,,,,,,,-0.0108495373279,-0.0028436020948,0.0109117999673,0.0,0,2,1.0,0,1,0.0,-0.0,0.0,0.0272277221084,0.99816006422,0.789473712444,-0.998161792755,-2.47105876656e+14,7,10.0,10.0,10.0,10.0,0.0,0.0,0.0,0.0,,,-0.091736420989,-0.0226314458996,0.0540407449007,,,,,,,,,,,,,,,,,,,,,,,,,,,,,,,,,,,,,,,,12.2697143555,12.2798023224,-1.0,-1.0,,,,,,,,,,,8875054,PX4FMU_V1,unknown_git_version,test,305419904.0,,,,,,,,,,,,,,
0.0186333749443,0.00495834043249,2.47155618668,0.00657309824601,0.00702024018392,0.0300122052431,0.169768258929,-0.0897531434894,-9.68165779114,0.0,0.0,2.52897810936,0.0,0.169768258929,-0.0897531434894,-9.68165779114,-0.00555954035372,-0.00904981419444,0.0527478158474,-0.219469353557,-0.166909396648,0.33010661602,1012.73999023,4.24617195129,39.6899986267,0.0,0.0,0.0,0.0,0.453719168901,0.0,0.0,0.196896880865,0.0,0.0,0.0,0,3,1,,,,,,,,,,,,,,,,-0.0129660964012,-0.00413573812693,0.00411839177832,0.0,0,2,1.0,0,1,0.0,-0.0,0.0,0.0272277221084,1.0,0.789473712444,-0.998161792755,-2.47105876656e+14,7,10.0,10.0,10.0,10.0,0.0,0.0,0.0,0.0,,,-0.0931661128998,-0.0247931331396,0.057468149811,,,,,,,,,,,,,,,,,,,,,,,,,,,,,,,,,,,,,,,,12.2780952454,12.279800415,-1.0,-1.0,,,,,,,,,,,8895605,PX4FMU_V1,unknown_git_version,test,305419904.0,,,,,,,,,,,,,,
0.0185483973473,0.00469920504838,2.47000575066,-0.00529599422589,-0.00540789077058,-0.0101672150195,-0.0785005539656,-0.15742136538,-9.80561447144,0.0,0.0,2.52897810936,0.0,-0.0785005539656,-0.15742136538,-9.80561447144,-0.0102036166936,-0.00321975536644,-0.0257722772658,-0.175435081124,-0.180225163698,0.32743626833,1012.73999023,4.24617195129,39.6899986267,0.0,0.0,0.0,0.0,0.457286804914,0.0,0.0,0.198030725121,0.0,0.0,0.0,0,3,1,,,,,,,,,,,,,,,,-0.0113678919151,-0.00235163327307,0.0103774825111,0.0,0,2,1.0,0,1,0.0,-0.0,0.0,0.0272277221084,0.99816006422,0.789473712444,-0.996323525906,-2.47105876656e+14,7,10.0,10.0,10.0,10.0,0.0,0.0,0.0,0.0,,,-0.092741318047,-0.0234973784536,0.0590159967542,,,,,,,,,,,,,,,,,,,,,,,,,,,,,,,,,,,,,,,,12.2697143555,12.2797880173,-1.0,-1.0,,,,,,,,,,,8916863,PX4FMU_V1,unknown_git_version,test,305419904.0,,,,,,,,,,,,,,
0.0186945907772,0.00494014145806,2.46705198288,0.0192561615258,0.0152395181358,0.0188689362258,0.241366133094,-0.521953999996,-9.57769489288,0.0,0.0,2.52897810936,0.0,0.241366133094,-0.521953999996,-9.57769489288,0.0140555938706,0.00783631019294,0.0205655675381,-0.155252724886,-0.166077166796,0.336337357759,1012.70996094,4.49600076675,39.6800003052,0.0,0.0,0.0,0.0,0.46201017499,0.0,0.0,0.199483349919,0.0,0.0,0.0,0,3,1,,,,,,,,,,,,,,,,-0.0146546885371,-0.00519241672009,0.00646551977843,0.0,0,2,1.0,0,1,0.0,-0.0,0.0,0.0272277221084,0.99816006422,0.789473712444,-0.996323525906,-2.47105876656e+14,7,10.0,10.0,10.0,10.0,0.0,0.0,0.0,0.0,,,-0.0934722200036,-0.0247021503747,0.0619723983109,,,,,,,,,,,,,,,,,,,,,,,,,,,,,,,,,,,,,,,,12.2697143555,12.2797756195,-1.0,-1.0,,,,,,,,,,,8939113,PX4FMU_V1,unknown_git_version,test,305419904.0,,,,,,,,,,,,,,
0.0184957552701,0.00466232001781,2.46446156502,-0.0131843984127,-0.0118719534948,0.00455835508183,-0.491391986609,0.210876077414,-9.94159030914,0.0,0.0,2.52897810936,0.0,-0.491391986609,0.210876077414,-9.94159030914,-0.0128681138158,-0.00676112854853,-0.00683836871758,-0.191030547023,-0.189379736781,0.322095632553,1012.69995117,4.57927846909,39.6800003052,0.0,0.0,0.0,0.0,0.462181925774,0.0,0.0,0.199002504349,0.0,0.0,0.0,0,3,1,,,,,,,,,,,,,,,,-0.0103081800044,-0.00148732645903,0.0090001905337,0.0,0,2,1.0,0,1,0.0,-0.0,0.0,0.0272277221084,1.0,0.789473712444,-0.998161792755,-2.47105876656e+14,7,10.0,10.0,10.0,10.0,0.0,0.0,0.0,0.0,,,-0.0924780964851,-0.0233129262924,0.0645596235991,,,,,,,,,,,,,,,,,,,,,,,,,,,,,,,,,,,,,,,,12.1691427231,12.2796049118,-1.0,-1.0,,,,,,,,,,,8960008,PX4FMU_V1,unknown_git_version,test,305419904.0,,,,,,,,,,,,,,
0.0185688212514,0.00480343867093,2.46210718155,0.0193653665483,0.0157824270427,0.00314841163345,0.127144902945,-0.176278948784,-9.70480728149,0.0,0.0,2.52897810936,0.0,0.127144902945,-0.176278948784,-9.70480728149,0.0280555747449,0.0187020711601,0.0129173686728,-0.181856736541,-0.176896229386,0.340787857771,1012.72998047,4.32944774628,39.6699981689,0.0,0.0,0.0,0.0,0.462582200766,0.0,0.0,0.198671355844,0.0,0.0,0.0,0,3,1,,,,,,,,,,,,,,,,-0.0145871397108,-0.00517412927002,0.00956505723298,0.0,0,2,1.0,0,1,0.0,-0.0,0.0,0.0346534661949,1.0,0.789473712444,-0.998161792755,-2.47105876656e+14,7,10.0,10.0,10.0,10.0,0.0,0.0,0.0,0.0,,,-0.0928433984518,-0.0240185689181,0.0669154599309,,,,,,,,,,,,,,,,,,,,,,,,,,,,,,,,,,,,,,,,12.1607618332,12.2794857025,-1.0,-1.0,,,,,,,,,,,8981305,PX4FMU_V1,unknown_git_version,test,305419904.0,,,,,,,,,,,,,,
0.0185886770487,0.00481606880203,2.4594233036,-0.0109336357564,-0.00969776976854,0.0170824360102,-0.214590281248,0.121625542641,-9.78207302094,0.0,0.0,2.52897810936,0.0,-0.214590281248,0.121625542641,-9.78207302094,-0.015432715416,-0.0174428224564,0.0137478634715,-0.178187221289,-0.178560689092,0.33989778161,1012.66998291,4.82911491394,39.6699981689,0.0,0.0,0.0,0.0,0.464418053627,0.0,0.0,0.198589324951,0.0,0.0,0.0,0,3,1,,,,,,,,,,,,,,,,-0.0106611745432,-0.00186991493683,0.00787757895887,0.0,0,2,1.0,0,1,0.0,-0.0,0.0,0.0371287129819,0.99816006422,0.789473712444,-0.998161792755,-2.47105876656e+14,7,10.0,10.0,10.0,10.0,0.0,0.0,0.0,0.0,,,-0.0929426774383,-0.0240817312151,0.0695996284485,,,,,,,,,,,,,,,,,,,,,,,,,,,,,,,,,,,,,,,,12.1859045029,12.2792901993,-1.0,-1.0,,,,,,,,,,,9004000,PX4FMU_V1,unknown_git_version,test,305419904.0,,,,,,,,,,,,,,
0.0185232050717,0.00470499135554,2.45828843117,0.00861564930528,0.00890019815415,-0.00773529708385,-0.0637336149812,0.122600585222,-9.80251693726,0.0,0.0,2.52897810936,0.0,-0.0637336149812,0.122600585222,-9.80251693726,0.016712423414,0.0169643089175,-0.00734885875136,-0.208460777998,-0.17023833096,0.343458205462,1012.7199707,4.4127240181,39.6800003052,0.0,0.0,0.0,0.0,0.461971968412,0.0,0.0,0.196532323956,0.0,0.0,0.0,0,3,1,,,,,,,,,,,,,,,,-0.0131600294262,-0.0042154463008,0.0117702614516,0.0,0,2,1.0,0,1,0.0,-0.0,0.0,0.0371287129819,0.99816006422,0.789473712444,-0.998161792755,-2.47105876656e+14,7,10.0,10.0,10.0,10.0,0.0,0.0,0.0,0.0,,,-0.0926153510809,-0.0235263109207,0.0707331076264,,,,,,,,,,,,,,,,,,,,,,,,,,,,,,,,,,,,,,,,12.1691427231,12.2790870667,-1.0,-1.0,,,,,,,,,,,9024476,PX4FMU_V1,unknown_git_version,test,305419904.0,,,,,,,,,,,,,,
0.0187454093248,0.00497715687379,2.45763301849,0.00437394110486,0.00771469064057,0.0158995818347,0.213093608618,-0.204911053181,-9.62912082672,0.0,0.0,2.52897810936,0.0,0.213093608618,-0.204911053181,-9.62912082672,-0.00805273838341,-0.00293313898146,0.0155247459188,-0.191030547023,-0.171070575714,0.347018629313,1012.7199707,4.4127240181,39.6800003052,0.0,0.0,0.0,0.0,0.463738739491,0.0,0.0,0.19636900723,0.0,0.0,0.0,0,3,1,,,,,,,,,,,,,,,,-0.0127530284226,-0.00423825066537,0.00832380540669,0.0,0,2,1.0,0,1,0.0,-0.0,0.0,0.0371287129819,1.0,0.789473712444,-0.998161792755,-2.47105876656e+14,7,10.0,10.0,10.0,10.0,0.0,0.0,0.0,0.0,,,-0.093726284802,-0.0248872395605,0.0713916197419,,,,,,,,,,,,,,,,,,,,,,,,,,,,,,,,,,,,,,,,12.177523613,12.2788848877,-1.0,-1.0,,,,,,,,,,,9045685,PX4FMU_V1,unknown_git_version,test,305419904.0,,,,,,,,,,,,,,
0.0185509622097,0.00468747969717,2.45328211784,1.79432026925e-06,0.00138160889037,-0.000500701367855,-0.306690245867,-0.0125288721174,-9.82346916199,0.0,0.0,2.52897810936,0.0241116750985,-0.306690245867,-0.0125288721174,-9.82346916199,0.00882554799318,0.0141700403765,-0.0130905872211,-0.135070338845,-0.16191598773,0.343458205462,1012.7199707,4.4127240181,39.6800003052,0.0,0.0,0.0,0.0,0.46549358964,0.0,0.0,0.196513175964,0.0,0.0,0.0,0,3,1,,,,,,,,,,,,,,,,-0.0120582701638,-0.00322664622217,0.0114360218868,0.0241116750985,0,2,1.0,0,1,0.0,-0.0,0.0241116750985,0.0371287129819,0.99816006422,0.789473712444,-0.998161792755,-2.47105876656e+14,7,11.0,12.0,12.0,12.0,0.0,0.0,0.0,0.0,,,-0.0927541330457,-0.0234387461096,0.0757394433022,,,,,,,,,,,,,,,,,,,,,,,,,,,,,,,,,,,,,,,,12.1607618332,12.2786655426,-1.0,-1.0,,,,,,,,,,,9067380,PX4FMU_V1,unknown_git_version,test,305419904.0,,,,,,,,,,,,,,
0.0187314599752,0.00496465479955,2.45049405098,0.0134696802124,0.0129306986928,0.0157296843827,0.173772737384,-0.194596558809,-9.68991088867,0.0,0.0,2.52897810936,0.0342639610171,0.173772737384,-0.194596558809,-9.68991088867,0.0101067535579,0.00922583416104,0.0273855701089,-0.119474872947,-0.163580462337,0.33989778161,1012.72998047,4.32944774628,39.6800003052,0.0,0.0,0.0,0.0,0.46702799201,0.0,0.0,0.196657150984,0.0,0.0,0.0,0,3,1,,,,,,,,,,,,,,,,-0.0139264082536,-0.00490820501,0.00942013785243,0.0342639610171,0,2,1.0,0,1,0.0,-0.0,0.0342639610171,0.0371287129819,0.99816006422,0.789473712444,-0.998161792755,-2.47105876656e+14,7,16.0,18.0,17.0,17.0,0.0,0.0,0.0,0.0,,,-0.093656539917,-0.0248247273266,0.0785306021571,,,,,,,,,,,,,,,,,,,,,,,,,,,,,,,,,,,,,,,,12.1607618332,12.278547287,-1.0,-1.0,,,,,,,,,,,9087998,PX4FMU_V1,unknown_git_version,test,305419904.0,,,,,,,,,,,,,,
0.0186125356704,0.00481107411906,2.45063138008,-0.00902243703604,-0.0101100187749,0.00867126882076,-0.446903437376,0.0677819624543,-9.78883171082,0.0,0.0,2.52897810936,0.0329949222505,-0.446903437376,0.0677819624543,-9.78883171082,-0.0109146339819,-0.011239560321,0.000797733373474,-0.220386698842,-0.159419283271,0.348798811436,1012.7199707,4.4127240181,39.6800003052,0.0,0.0,0.0,0.0,0.46960529685,0.0,0.0,0.197017759085,0.0,0.0,0.0,0,3,1,,,,,,,,,,,,,,,,-0.0109251374379,-0.00181307713501,0.0104580270126,0.0329949222505,0,2,1.0,0,1,0.0,-0.0,0.0329949222505,0.0371287129819,1.0,0.789473712444,-0.998161792755,-2.47105876656e+14,7,15.0,17.0,16.0,17.0,0.0,0.0,0.0,0.0,,,-0.0930619612336,-0.0240567661822,0.0783914476633,,,,,,,,,,,,,,,,,,,,,,,,,,,,,,,,,,,,,,,,12.1356191635,12.2782526016,-1.0,-1.0,,,,,,,,,,,9109332,PX4FMU_V1,unknown_git_version,test,305419904.0,,,,,,,,,,,,,,
0.0187577679753,0.0050078285858,2.44780826569,0.0188891459256,0.018712522462,0.0097073558718,0.271304279566,-0.262296885252,-9.65284729004,0.0,0.0,2.52897810936,0.0329949222505,0.271304279566,-0.262296885252,-9.65284729004,0.0204896312207,0.0193031206727,0.0216982010752,-0.139657258987,-0.17523175478,0.339007675648,1012.72998047,4.32944774628,39.6699981689,0.0,0.0,0.0,0.0,0.471637666225,0.0,0.0,0.197007074952,0.0,0.0,0.0,0,3,1,,,,,,,,,,,,,,,,-0.0146480314434,-0.00568790594116,0.0107264183462,0.0329949222505,0,2,1.0,0,1,0.0,-0.0,0.0329949222505,0.0371287129819,1.0,0.789473712444,-0.998161792755,-2.47105876656e+14,7,15.0,17.0,16.0,17.0,0.0,0.0,0.0,0.0,,,-0.0937880277634,-0.0250406004488,0.0812168046832,,,,,,,,,,,,,,,,,,,,,,,,,,,,,,,,,,,,,,,,12.1942853928,12.2781019211,-1.0,-1.0,,,,,,,,,,,9131694,PX4FMU_V1,unknown_git_version,test,305419904.0,,,,,,,,,,,,,,
0.0187111645937,0.00491647422314,2.44626927376,-0.0140410969034,-0.0156317837536,0.0126408617944,-0.363022327423,0.0703270658851,-9.79784202576,0.0,0.0,2.52897810936,0.0393401011825,-0.363022327423,0.0703270658851,-9.79784202576,-0.0236265435815,-0.0255560539663,0.00197338988073,-0.150665804744,-0.166909396648,0.340787857771,1012.70996094,4.49600076675,39.6699981689,0.0,0.0,0.0,0.0,0.472643762827,0.0,0.0,0.196613997221,0.0,0.0,0.0,0,3,1,,,,,,,,,,,,,,,,-0.0103368163109,-0.00116376276128,0.0105171175674,0.0393401011825,0,2,1.0,0,1,0.0,-0.0,0.0393401011825,0.0346534661949,1.0,0.789473712444,-0.998161792755,-2.47105876656e+14,7,18.0,21.0,19.0,20.0,0.0,0.0,0.0,0.0,,,-0.0935550704598,-0.0245838053524,0.0827549770474,,,,,,,,,,,,,,,,,,,,,,,,,,,,,,,,,,,,,,,,12.1356191635,12.2778673172,-1.0,-1.0,,,,,,,,,,,9152545,PX4FMU_V1,unknown_git_version,test,305419904.0,,,,,,,,,,,,,,
0.0186539068818,0.00489804986864,2.44504404068,0.0188304707408,0.0224073491991,-0.000149647239596,0.12991566956,0.0176327675581,-9.79313278198,0.0,0.0,2.52897810936,0.0507614202797,0.12991566956,0.0176327675581,-9.79313278198,0.0351770371199,0.0381886512041,0.0102193765342,-0.183691501617,-0.176896229386,0.344348311424,1012.75,4.16289710999,39.6800003052,0.0,0.0,0.0,0.0,0.472967922688,0.0,0.0,0.196286931634,0.0,0.0,0.0,0,3,1,,,,,,,,,,,,,,,,-0.0145729044452,-0.00609687296674,0.0126194050536,0.0507614202797,0,2,1.0,0,1,0.0,-0.0,0.0507614202797,0.0346534661949,1.0,0.789473712444,-0.998161792755,-2.47105876656e+14,7,23.0,27.0,25.0,26.0,0.0,0.0,0.0,0.0,,,-0.0932687968016,-0.0244916751981,0.0839797183871,,,,,,,,,,,,,,,,,,,,,,,,,,,,,,,,,,,,,,,,12.1607618332,12.2777500153,-1.0,-1.0,,,,,,,,,,,9173740,PX4FMU_V1,unknown_git_version,test,305419904.0,,,,,,,,,,,,,,
0.0187924094498,0.00496725412086,2.44271278381,-0.0193595755845,-0.0235292203724,0.0169489923865,-0.406710147858,-0.0279014036059,-9.83084774017,0.0,0.0,2.52897810936,0.0532994940877,-0.406710147858,-0.0279014036059,-9.83084774017,-0.0381831526756,-0.039840888232,0.0109204612672,-0.168096035719,-0.174399510026,0.344348311424,1012.70996094,4.49600076675,39.6800003052,0.0,0.0,0.0,0.0,0.476265490055,0.0,0.0,0.196668699384,0.0,0.0,0.0,0,3,1,,,,,,,,,,,,,,,,-0.00969822052866,-0.000170105573488,0.0104044666514,0.0532994940877,0,2,1.0,0,1,0.0,-0.0,0.0532994940877,0.0371287129819,0.99816006422,0.789473712444,-0.998161792755,-2.47105876656e+14,7,25.0,28.0,26.0,27.0,0.0,0.0,0.0,0.0,,,-0.093961276114,-0.0248377248645,0.0863121002913,,,,,,,,,,,,,,,,,,,,,,,,,,,,,,,,,,,,,,,,12.1523809433,12.2774915695,-1.0,-1.0,,,,,,,,,,,9196005,PX4FMU_V1,unknown_git_version,test,305419904.0,,,,,,,,,,,,,,
0.0185453854501,0.00474973395467,2.44097089767,0.0189700387418,0.0225401166826,0.00191010721028,-0.0314638242126,0.115706220269,-9.85648441315,0.0,0.0,2.52897810936,0.0710659921169,-0.0314638242126,0.115706220269,-9.85648441315,0.0485282242298,0.048785969615,0.00875440053642,-0.147913679481,-0.179392918944,0.342568069696,1012.70996094,4.49600076675,39.6800003052,0.0,0.0,0.0,0.0,0.477238565683,0.0,0.0,0.196696355939,0.0,0.0,0.0,0,3,1,,,,,,,,,,,,,,,,-0.0145205147564,-0.00601771846414,0.0129211694002,0.0710659921169,0,2,1.0,0,1,0.0,-0.0,0.0710659921169,0.0371287129819,0.99816006422,0.789473712444,-0.998161792755,-2.47105876656e+14,7,33.0,38.0,35.0,37.0,0.0,0.0,0.0,0.0,,,-0.0927262306213,-0.0237500276417,0.0880512297153,,,,,,,,,,,,,,,,,,,,,,,,,,,,,,,,,,,,,,,,12.177523613,12.2772827148,-1.0,-1.0,,,,,,,,,,,9216997,PX4FMU_V1,unknown_git_version,test,305419904.0,,,,,,,,,,,,,,
0.0189814064652,0.00515988189727,2.44057297707,-0.00311728520319,-0.0088160969317,0.0177496559918,0.0991389602423,-0.374139368534,-9.7248840332,0.0,0.0,2.52897810936,0.0710659921169,0.0991389602423,-0.374139368534,-9.7248840332,-0.0369576215744,-0.0398281700909,0.0116019975394,-0.19653481245,-0.168573871255,0.335447221994,1012.73999023,4.24617195129,39.6899986267,0.0,0.0,0.0,0.0,0.479829221964,0.0,0.0,0.197309210896,0.0,0.0,0.0,0,3,1,,,,,,,,,,,,,,,,-0.0119325546548,-0.00220803217962,0.0106056584045,0.0710659921169,0,2,1.0,0,1,0.0,-0.0,0.0710659921169,0.0371287129819,0.99816006422,0.789473712444,-0.998161792755,-2.47105876656e+14,7,33.0,38.0,35.0,37.0,0.0,0.0,0.0,0.0,,,-0.0949061736465,-0.0258009601384,0.0884540379047,,,,,,,,,,,,,,,,,,,,,,,,,,,,,,,,,,,,,,,,12.1272382736,12.2770328522,-1.0,-1.0,,,,,,,,,,,9238317,PX4FMU_V1,unknown_git_version,test,305419904.0,,,,,,,,,,,,,,
0.0185039807111,0.00474926270545,2.4427728653,0.0226441137493,0.0284613426775,0.00759046291932,0.117706567049,0.205546423793,-9.85871696472,0.0,0.0,2.52897810936,0.115482233465,0.117706567049,0.205546423793,-9.85871696472,0.0611104667187,0.0606077685952,0.0193642601371,-0.226808384061,-0.158587053418,0.340787857771,1012.75,4.16289710999,39.6899986267,0.0,0.0,0.0,0.0,0.48340973258,0.0,0.0,0.198283970356,0.0,0.0,0.0,0,3,1,,,,,,,,,,,,,,,,-0.0149712320417,-0.00678717112169,0.0117988204584,0.115482233465,0,2,1.0,0,1,0.0,-0.0,0.115482233465,0.0247524753213,0.99816006422,0.789473712444,-0.996323525906,-2.47105876656e+14,7,53.0,62.0,57.0,60.0,0.0,0.0,0.0,0.0,,,-0.0925192162395,-0.0237476676702,0.0862492620945,,,,,,,,,,,,,,,,,,,,,,,,,,,,,,,,,,,,,,,,12.1859045029,12.2768344879,-1.0,-1.0,,,,,,,,,,,9260364,PX4FMU_V1,unknown_git_version,test,305419904.0,,,,,,,,,,,,,,
0.0189980082214,0.00512555940077,2.43796253204,-0.0117201283574,-0.0188350323588,0.00814878102392,-0.324033617973,-0.380171358585,-9.83515357971,0.0,0.0,2.52897810936,0.143401011825,-0.324033617973,-0.380171358585,-9.83515357971,-0.0557884834707,-0.0560593120754,-0.00157922273502,-0.145161524415,-0.167741626501,0.380842655897,1012.75,4.16289710999,39.6699981689,0.0,0.0,0.0,0.0,0.485715389252,0.0,0.0,0.19877807796,0.0,0.0,0.0,0,3,1,,,,,,,,,,,,,,,,-0.0108249802142,-0.000883260916453,0.012437322177,0.143401011825,0,2,1.0,0,1,0.0,-0.0,0.143401011825,0.0247524753213,0.99816006422,0.791979968548,-0.998161792755,-2.47105876656e+14,7,67.0,78.0,71.0,75.0,0.0,0.0,0.0,0.0,,,-0.0949892103672,-0.0256293471903,0.0910642594099,,,,,,,,,,,,,,,,,,,,,,,,,,,,,,,,,,,,,,,,11.9009523392,12.2764587402,-1.0,-1.0,,,,,,,,,,,9281646,PX4FMU_V1,unknown_git_version,test,305419904.0,,,,,,,,,,,,,,
0.0186273641884,0.0050390176475,2.43769073486,0.0350631885231,0.0438373610377,0.0138051295653,0.794163048267,-0.0267991013825,-9.82162284851,0.0,0.0,2.52897810936,0.162436544895,0.794163048267,-0.0267991013825,-9.82162284851,0.0743658170104,0.0698320865631,0.0252825021744,-0.213965043426,-0.151096940041,0.363930642605,1012.7199707,4.4127240181,39.6699981689,0.0,0.0,0.0,0.0,0.489272475243,0.0,0.0,0.199918150902,0.0,0.0,0.0,0,3,1,,,,,,,,,,,,,,,,-0.0166658982635,-0.00897440779954,0.0116293644533,0.162436544895,0,2,1.0,0,1,0.0,-0.0,0.162436544895,0.0247524753213,0.99816006422,0.791979968548,-0.998161792755,-2.47105876656e+14,7,75.0,88.0,81.0,85.0,0.0,0.0,0.0,0.0,,,-0.0931360274553,-0.0251965485513,0.0913342237473,,,,,,,,,,,,,,,,,,,,,,,,,,,,,,,,,,,,,,,,12.0099048615,12.2759256363,-1.0,-1.0,,,,,,,,,,,9303882,PX4FMU_V1,unknown_git_version,test,305419904.0,,,,,,,,,,,,,,
0.0189813226461,0.00488264160231,2.43797540665,-0.0200139973313,-0.0290914773941,0.00061257003108,-1.33303415775,0.0852289423347,-10.1601219177,0.0,0.0,2.52897810936,0.186548218131,-1.33303415775,0.0852289423347,-10.1601219177,-0.0540041550994,-0.0424574539065,-0.014899360016,-0.180022001266,-0.141942352057,0.371051490307,1012.70996094,4.49600076675,39.6699981689,0.0,0.0,0.0,0.0,0.490122675896,0.0,0.0,0.199098289013,0.0,0.0,0.0,0,3,1,,,,,,,,,,,,,,,,-0.0097359418869,0.000607985479292,0.0135654592887,0.186548218131,0,2,1.0,0,1,0.0,-0.0,0.186548218131,0.0247524753213,1.0,0.789473712444,-0.998161792755,-2.47105876656e+14,7,88.0,102.0,91.0,98.0,0.0,0.0,0.0,0.0,,,-0.0949058607221,-0.024414665997,0.0910489633679,,,,,,,,,,,,,,,,,,,,,,,,,,,,,,,,,,,,,,,,11.9763803482,12.2753601074,-1.0,-1.0,,,,,,,,,,,9324814,PX4FMU_V1,unknown_git_version,test,305419904.0,,,,,,,,,,,,,,
0.0188132151961,0.00527993077412,2.43702530861,0.00814627856016,0.0121949119493,0.0185656249523,1.27325332165,-0.514032542706,-9.51890659332,0.0,0.0,2.52897810936,0.225888326764,1.27325332165,-0.514032542706,-9.51890659332,0.0101171322167,-0.00475003616884,0.0329189896584,-0.172682955861,-0.16191598773,0.350579053164,1012.69995117,4.57927846909,39.6499977112,0.0,0.0,0.0,0.0,0.490962177515,0.0,0.0,0.198376432061,0.0,0.0,0.0,0,3,1,,,,,,,,,,,,,,,,-0.0132874939591,-0.00501749664545,0.0110155399889,0.225888326764,0,2,1.0,0,1,0.0,-0.0,0.225888326764,0.0247524753213,1.0,0.789473712444,-0.998161792755,-2.47105876656e+14,7,105.0,122.0,113.0,119.0,0.0,0.0,0.0,0.0,,,-0.0940652191639,-0.0264012180269,0.092002555728,,,,,,,,,,,,,,,,,,,,,,,,,,,,,,,,,,,,,,,,12.0518093109,12.2748298645,-1.0,-1.0,,,,,,,,,,,9345945,PX4FMU_V1,unknown_git_version,test,305419904.0,,,,,,,,,,,,,,
0.0188426133245,0.0049868770875,2.43703484535,0.0227636881173,0.035616889596,-0.0112449526787,1.30634713173,-0.559978067875,-9.42070007324,0.0,0.0,2.52897810936,0.225888326764,1.30634713173,-0.559978067875,-9.42070007324,0.0355923771858,0.0601021461189,-0.0120078139007,-0.164426535368,-0.17523175478,0.366600960493,1012.67999268,4.74583530426,39.6499977112,0.0,0.0,0.0,0.0,0.489088624716,0.0,0.0,0.196050837636,0.0,0.0,0.0,0,3,1,,,,,,,,,,,,,,,,-0.0152068762109,-0.00787185784429,0.0154852764681,0.225888326764,0,2,1.0,0,1,0.0,-0.0,0.225888326764,0.0247524753213,1.0,0.789473712444,-0.998161792755,-2.47105876656e+14,7,103.0,124.0,112.0,120.0,0.0,0.0,0.0,0.0,,,-0.0942122936249,-0.0249358620495,0.0919902175665,,,,,,,,,,,,,,,,,,,,,,,,,,,,,,,,,,,,,,,,12.0266666412,12.274266243,-1.0,-1.0,,,,,,,,,,,9367997,PX4FMU_V1,unknown_git_version,test,305419904.0,,,,,,,,,,,,,,
0.0185888409615,0.00478242291138,2.4352657795,-0.0161133762449,-0.0245767924935,0.011534682475,-2.1782438755,0.479490220547,-10.3843641281,0.0,0.0,2.52897810936,0.232233509421,-2.1782438755,0.479490220547,-10.3843641281,-0.00861662719399,-0.0245372094214,0.0133093688637,-0.153417959809,-0.187715277076,0.36571085453,1012.75994873,4.07962274551,39.6499977112,0.0,0.0,0.0,0.0,0.48779219389,0.0,0.0,0.195055887103,0.0,0.0,0.0,0,3,1,,,,,,,,,,,,,,,,-0.00998791400343,8.62288798089e-05,0.0123333083466,0.232233509421,0,2,1.0,0,1,0.0,-0.0,0.232233509421,0.0247524753213,0.99816006422,0.791979968548,-0.998161792755,-2.47105876656e+14,7,110.0,126.0,114.0,122.0,0.0,0.0,0.0,0.0,,,-0.0929434895515,-0.02391349338,0.0937567353249,,,,,,,,,,,,,,,,,,,,,,,,,,,,,,,,,,,,,,,,12.0518093109,12.2740440369,-1.0,-1.0,,,,,,,,,,,9389270,PX4FMU_V1,unknown_git_version,test,305419904.0,,,,,,,,,,,,,,
0.0186112578958,0.00517593324184,2.43476366997,-0.0186350829899,-0.0141000058502,-0.00963120162487,0.366265714169,0.0307767242193,-9.55423164368,0.0,0.0,2.52897810936,0.232233509421,0.366265714169,0.0307767242193,-9.55423164368,-0.0409061834216,-0.0499588660896,-0.00724101765081,-0.184608876705,-0.148600235581,0.357699900866,1012.75,4.16289710999,39.6499977112,0.0,0.0,0.0,0.0,0.490717232227,0.0,0.0,0.195201024413,0.0,0.0,0.0,0,3,1,,,,,,,,,,,,,,,,-0.0096746487543,-0.00153154926375,0.0155840739608,0.232233509421,0,2,1.0,0,1,0.0,-0.0,0.232233509421,0.0247524753213,1.0,0.789473712444,-0.998161792755,-2.47105876656e+14,7,108.0,127.0,113.0,123.0,0.0,0.0,0.0,0.0,,,-0.0930554568768,-0.0258811544627,0.0942626222968,,,,,,,,,,,,,,,,,,,,,,,,,,,,,,,,,,,,,,,,12.0518093109,12.273566246,-1.0,-1.0,,,,,,,,,,,9410468,PX4FMU_V1,unknown_git_version,test,305419904.0,,,,,,,,,,,,,,
0.0187616683543,0.00524802645668,2.43479800224,0.0184063296765,0.0287256464362,0.000433815235738,1.87288451195,-0.797991156578,-8.9575881958,0.0,0.0,2.52897810936,0.232233509421,1.87288451195,-0.797991156578,-8.9575881958,-0.00334672722965,0.0138916224241,0.00432985275984,-0.207543388009,-0.167741626501,0.36571085453,1012.75,4.16289710999,39.6499977112,0.0,0.0,0.0,0.0,0.495139956474,0.0,0.0,0.196311473846,0.0,0.0,0.0,0,3,1,,,,,,,,,,,,,,,,-0.0145877981558,-0.00714575266466,0.0140693187714,0.232233509421,0,2,1.0,0,1,0.0,-0.0,0.232233509421,0.0222772285342,0.99816006422,0.789473712444,-0.998161792755,-2.47105876656e+14,7,106.0,127.0,116.0,123.0,0.0,0.0,0.0,0.0,,,-0.093807503581,-0.0262416806072,0.0942292734981,,,,,,,,,,,,,,,,,,,,,,,,,,,,,,,,,,,,,,,,12.0601902008,12.2731389999,-1.0,-1.0,,,,,,,,,,,9432051,PX4FMU_V1,unknown_git_version,test,305419904.0,,,,,,,,,,,,,,
0.0186930540949,0.00482319621369,2.43625879288,0.0192945506424,0.0141480769962,0.0150587353855,0.0542487762868,-0.72095143795,-9.7075214386,0.0,0.0,2.52897810936,0.232233509421,0.0542487762868,-0.72095143795,-9.7075214386,0.0338578596711,0.0472003482282,-0.00647283578292,-0.198369577527,-0.155258119106,0.355029582977,1012.73999023,4.24617195129,39.6399993896,0.0,0.0,0.0,0.0,0.501412272453,0.0,0.0,0.198699846864,0.0,0.0,0.0,0,3,1,,,,,,,,,,,,,,,,-0.014658681117,-0.00497450958937,0.0116558456793,0.232233509421,0,2,1.0,0,1,0.0,-0.0,0.232233509421,0.0222772285342,0.99816006422,0.789473712444,-0.998161792755,-2.47105876656e+14,7,109.0,125.0,117.0,120.0,0.0,0.0,0.0,0.0,,,-0.093464538455,-0.0241173822433,0.0927643701434,,,,,,,,,,,,,,,,,,,,,,,,,,,,,,,,,,,,,,,,12.0601902008,12.2727136612,-1.0,-1.0,,,,,,,,,,,9452948,PX4FMU_V1,unknown_git_version,test,305419904.0,,,,,,,,,,,,,,
0.0182249844074,0.00480529945344,2.43726420403,-0.0141346631572,-0.0219120662659,-0.00631328485906,-1.74368274212,1.21087777615,-10.3689985275,0.0,0.0,2.52897810936,0.232233509421,-1.74368274212,1.21087777615,-10.3689985275,0.0162635799497,-0.0253818742931,0.0239478554577,-0.192865312099,-0.144439056516,0.347908735275,1012.72998047,4.32944774628,39.6399993896,0.0,0.0,0.0,0.0,0.50291454792,0.0,0.0,0.198913663626,0.0,0.0,0.0,0,3,1,,,,,,,,,,,,,,,,-0.0100086461753,-0.000275049504125,0.0147106265649,0.232233509421,0,2,1.0,0,1,0.0,-0.0,0.232233509421,0.0222772285342,0.99816006422,0.791979968548,-0.998161792755,-2.47105876656e+14,7,108.0,128.0,112.0,124.0,0.0,0.0,0.0,0.0,,,-0.0911242514849,-0.0240278318524,0.0917575508356,,,,,,,,,,,,,,,,,,,,,,,,,,,,,,,,,,,,,,,,12.0601902008,12.2725009918,-1.0,-1.0,,,,,,,,,,,9474315,PX4FMU_V1,unknown_git_version,test,305419904.0,,,,,,,,,,,,,,
0.0183693412691,0.00512812519446,2.43655586243,-0.0230409111828,-0.00698270089924,-0.00822321139276,-0.471725672483,1.18549180031,-9.8665266037,0.0,0.0,2.52897810936,0.232233509421,-0.471725672483,1.18549180031,-9.8665266037,-0.0335120148957,-0.0369688868523,0.00199323799461,-0.185526266694,-0.174399510026,0.360370218754,1012.7199707,4.4127240181,39.6299972534,0.0,0.0,0.0,0.0,0.505084812641,0.0,0.0,0.198915168643,0.0,0.0,0.0,0,3,1,,,,,,,,,,,,,,,,-0.00894464924932,-0.00242571695708,0.0151038728654,0.232233509421,0,2,1.0,0,1,0.0,-0.0,0.232233509421,0.0222772285342,0.99816006422,0.791979968548,-0.998161792755,-2.47105876656e+14,7,107.0,127.0,114.0,124.0,0.0,0.0,0.0,0.0,,,-0.0918459072709,-0.0256420634687,0.0924692675471,,,,,,,,,,,,,,,,,,,,,,,,,,,,,,,,,,,,,,,,12.0601902008,12.2720766068,-1.0,-1.0,,,,,,,,,,,9496538,PX4FMU_V1,unknown_git_version,test,305419904.0,,,,,,,,,,,,,,
0.0187966953963,0.00520323589444,2.43554282188,0.0068620108068,0.0193858444691,-0.0120415594429,1.18842363358,-1.04150736332,-9.34118747711,0.0,0.0,2.52897810936,0.230964466929,1.18842363358,-1.04150736332,-9.34118747711,-0.0292998552322,0.0173224471509,-0.0436091683805,-0.178187221289,-0.173567280173,0.356809794903,1012.70996094,4.49600076675,39.6299972534,0.0,0.0,0.0,0.0,0.506742358208,0.0,0.0,0.198716014624,0.0,0.0,0.0,0,3,1,,,,,,,,,,,,,,,,-0.0131098022684,-0.00590246077627,0.0158288758248,0.230964466929,0,2,1.0,0,1,0.0,-0.0,0.230964466929,0.0247524753213,0.99816006422,0.789473712444,-0.998161792755,-2.47105876656e+14,7,106.0,126.0,116.0,121.0,0.0,0.0,0.0,0.0,,,-0.093982629478,-0.0260177031159,0.0934842675924,,,,,,,,,,,,,,,,,,,,,,,,,,,,,,,,,,,,,,,,12.0601902008,12.2716531754,-1.0,-1.0,,,,,,,,,,,9517269,PX4FMU_V1,unknown_git_version,test,305419904.0,,,,,,,,,,,,,,
0.0185163747519,0.00483082234859,2.43567442894,0.0285586249083,0.00484768580645,0.0112702213228,-0.363230288029,-1.16565322876,-9.64188098907,0.0,0.0,2.52897810936,0.232233509421,-0.363230288029,-1.16565322876,-9.64188098907,0.0587391331792,0.0303083993495,0.0263972468674,-0.18827842176,-0.141942352057,0.351469159126,1012.7699585,3.99634933472,39.6299972534,0.0,0.0,0.0,0.0,0.507974386215,0.0,0.0,0.198321074247,0.0,0.0,0.0,0,3,1,,,,,,,,,,,,,,,,-0.0157481692731,-0.0037704128772,0.0123117221519,0.232233509421,0,2,1.0,0,1,0.0,-0.0,0.232233509421,0.0222772285342,0.99816006422,0.789473712444,-0.998161792755,-2.47105876656e+14,7,107.0,127.0,117.0,121.0,0.0,0.0,0.0,0.0,,,-0.0925811454654,-0.024155491963,0.0933483615518,,,,,,,,,,,,,,,,,,,,,,,,,,,,,,,,,,,,,,,,12.0685710907,12.2712469101,-1.0,-1.0,,,,,,,,,,,9538446,PX4FMU_V1,unknown_git_version,test,305419904.0,,,,,,,,,,,,,,
0.018184794113,0.00494369119406,2.4343225956,0.00465688528493,-0.00947996601462,0.021488936618,-1.03657257557,0.634337902069,-10.151350975,0.0,0.0,2.52897810936,0.230964466929,-1.03657257557,0.634337902069,-10.151350975,0.0479426123202,-0.00476245861501,0.0458283275366,-0.191030547023,-0.148600235581,0.356809794903,1012.73999023,4.24617195129,39.6299972534,0.0,0.0,0.0,0.0,0.513290166855,0.0,0.0,0.200024738908,0.0,0.0,0.0,0,3,1,,,,,,,,,,,,,,,,-0.0124254152179,-0.00198118155822,0.0109817311168,0.230964466929,0,2,1.0,0,1,0.0,-0.0,0.230964466929,0.0222772285342,1.0,0.789473712444,-0.998161792755,-2.47105876656e+14,7,108.0,126.0,113.0,124.0,0.0,0.0,0.0,0.0,,,-0.0909232348204,-0.0247198250145,0.0947004705667,,,,,,,,,,,,,,,,,,,,,,,,,,,,,,,,,,,,,,,,12.0518093109,12.2708082199,-1.0,-1.0,,,,,,,,,,,9560469,PX4FMU_V1,unknown_git_version,test,305419904.0,,,,,,,,,,,,,,
0.0184717755765,0.00515140034258,2.43195986748,-0.0114143816754,0.00156416115351,-0.0149257155135,0.174723014235,1.11378121376,-9.93085289001,0.0,0.0,2.52897810936,0.232233509421,0.174723014235,1.11378121376,-9.93085289001,-0.0238583218306,-0.0117778107524,-0.00615763524547,-0.189195767045,-0.162748232484,0.352359265089,1012.73999023,4.24617195129,39.6299972534,0.0,0.0,0.0,0.0,0.514912843704,0.0,0.0,0.199919953942,0.0,0.0,0.0,0,3,1,,,,,,,,,,,,,,,,-0.0105226784945,-0.00355194159783,0.0167987216264,0.232233509421,0,2,1.0,0,1,0.0,-0.0,0.232233509421,0.0222772285342,0.99816006422,0.789473712444,-0.996323525906,-2.47105876656e+14,7,106.0,128.0,114.0,124.0,0.0,0.0,0.0,0.0,,,-0.0923580601811,-0.0257584676147,0.0970657542348,,,,,,,,,,,,,,,,,,,,,,,,,,,,,,,,,,,,,,,,12.0601902008,12.2705974579,-1.0,-1.0,,,,,,,,,,,9581867,PX4FMU_V1,unknown_git_version,test,305419904.0,,,,,,,,,,,,,,
0.0187800396234,0.0052254316397,2.43025422096,-0.00973332487047,0.0103323245421,-0.00262110773474,0.820600152016,0.010622985661,-9.7562789917,0.0,0.0,2.52897810936,0.232233509421,0.820600152016,0.010622985661,-9.7562789917,-0.0428806394339,-0.00172376388218,-0.0113804750144,-0.185526266694,-0.180225163698,0.342568069696,1012.75,4.16289710999,39.6299972534,0.0,0.0,0.0,0.0,0.518659889698,0.0,0.0,0.200913742185,0.0,0.0,0.0,0,3,1,,,,,,,,,,,,,,,,-0.0109415799379,-0.00473993131891,0.0152091104537,0.232233509421,0,2,1.0,0,1,0.0,-0.0,0.232233509421,0.0222772285342,0.99816006422,0.789473712444,-0.996323525906,-2.47105876656e+14,7,107.0,127.0,116.0,123.0,0.0,0.0,0.0,0.0,,,-0.0938993319869,-0.0261286869645,0.098772957921,,,,,,,,,,,,,,,,,,,,,,,,,,,,,,,,,,,,,,,,12.0601902008,12.2701692581,-1.0,-1.0,,,,,,,,,,,9604690,PX4FMU_V1,unknown_git_version,test,305419904.0,,,,,,,,,,,,,,
0.0188112594187,0.00495193945244,2.42960381508,0.0224277134985,0.00397197995335,0.00936393719167,-0.377002477646,-1.20103430748,-9.56030750275,0.0,0.0,2.52897810936,0.232233509421,-0.377002477646,-1.20103430748,-9.56030750275,0.0223682131618,0.0197316650301,-0.00608863402158,-0.183691501617,-0.184386327863,0.363040536642,1012.73999023,4.24617195129,39.6299972534,0.0,0.0,0.0,0.0,0.522372126579,0.0,0.0,0.20182557404,0.0,0.0,0.0,0,3,1,,,,,,,,,,,,,,,,-0.0151428198442,-0.00373530830257,0.0135085536167,0.232233509421,0,2,1.0,0,1,0.0,-0.0,0.232233509421,0.0272277221084,0.99816006422,0.789473712444,-0.998161792755,-2.47105876656e+14,7,108.0,127.0,116.0,121.0,0.0,0.0,0.0,0.0,,,-0.094055518508,-0.0247611626983,0.0994209572673,,,,,,,,,,,,,,,,,,,,,,,,,,,,,,,,,,,,,,,,12.0601902008,12.2697582245,-1.0,-1.0,,,,,,,,,,,9625314,PX4FMU_V1,unknown_git_version,test,305419904.0,,,,,,,,,,,,,,
0.0185753311962,0.00511010130867,2.42841458321,0.00722433440387,-0.00377681362443,0.012943373993,-0.589925348759,0.31795796752,-9.86412334442,0.0,0.0,2.52897810936,0.233502537012,-0.589925348759,0.31795796752,-9.86412334442,0.0311912223697,-0.0132524576038,0.0244498625398,-0.169013425708,-0.166077166796,0.344348311424,1012.75,4.16289710999,39.6199989319,0.0,0.0,0.0,0.0,0.525896012783,0.0,0.0,0.202589586377,0.0,0.0,0.0,0,3,1,,,,,,,,,,,,,,,,-0.0130130220205,-0.0028307705652,0.0131501350552,0.233502537012,0,2,1.0,0,1,0.0,-0.0,0.233502537012,0.0247524753213,1.0,0.789473712444,-1.0,-2.47105876656e+14,7,109.0,127.0,116.0,122.0,0.0,0.0,0.0,0.0,,,-0.0928758382797,-0.0255519710481,0.100610934198,,,,,,,,,,,,,,,,,,,,,,,,,,,,,,,,,,,,,,,,12.0601902008,12.2693557739,-1.0,-1.0,,,,,,,,,,,9646303,PX4FMU_V1,unknown_git_version,test,305419904.0,,,,,,,,,,,,,,
0.0185420978814,0.00518654007465,2.42883706093,-0.0117849977687,0.0024388176389,0.00828895065933,-0.0212408266962,1.00222420692,-9.83173847198,0.0,0.0,2.52897810936,0.233502537012,-0.0212408266962,1.00222420692,-9.83173847198,-0.00198728218675,-0.00324102118611,0.0118762813509,-0.175435081124,-0.146935760975,0.347018629313,1012.75994873,4.07962274551,39.6199989319,0.0,0.0,0.0,0.0,0.531580209732,0.0,0.0,0.204155221581,0.0,0.0,0.0,0,3,1,,,,,,,,,,,,,,,,-0.010520205833,-0.00368848931976,0.0137850465253,0.233502537012,0,2,1.0,0,1,0.0,-0.0,0.233502537012,0.0272277221084,0.99816006422,0.789473712444,-0.998161792755,-2.47105876656e+14,7,108.0,127.0,115.0,124.0,0.0,0.0,0.0,0.0,,,-0.0927096605301,-0.0259341783822,0.100189253688,,,,,,,,,,,,,,,,,,,,,,,,,,,,,,,,,,,,,,,,12.0601902008,12.268945694,-1.0,-1.0,,,,,,,,,,,9668861,PX4FMU_V1,unknown_git_version,test,305419904.0,,,,,,,,,,,,,,
0.0188907198608,0.00515642249957,2.42968463898,0.0055394009687,0.0113118356094,0.00833075866103,0.56445646286,-0.440387398005,-9.60407352448,0.0,0.0,2.52897810936,0.233502537012,0.56445646286,-0.440387398005,-9.60407352448,-0.0130930282176,0.0160242021084,0.0119806742296,-0.207543388009,-0.156090334058,0.359480112791,1012.75994873,4.07962274551,39.6199989319,0.0,0.0,0.0,0.0,0.534136176109,0.0,0.0,0.204825937748,0.0,0.0,0.0,0,3,1,,,,,,,,,,,,,,,,-0.0129989795387,-0.00482241157442,0.013651702553,0.233502537012,0,2,1.0,0,1,0.0,-0.0,0.233502537012,0.0272277221084,0.99816006422,0.789473712444,-0.998161792755,-2.47105876656e+14,7,108.0,127.0,116.0,123.0,0.0,0.0,0.0,0.0,,,-0.0944527536631,-0.0257836394012,0.0993421077728,,,,,,,,,,,,,,,,,,,,,,,,,,,,,,,,,,,,,,,,12.0601902008,12.2687368393,-1.0,-1.0,,,,,,,,,,,9689668,PX4FMU_V1,unknown_git_version,test,305419904.0,,,,,,,,,,,,,,
0.0186718832701,0.00508012389764,2.42882466316,0.00668577104807,0.000446020130767,0.00504167098552,-0.659956514835,-0.210628271103,-10.0382995605,0.0,0.0,2.52897810936,0.233502537012,-0.659956514835,-0.210628271103,-10.0382995605,0.0175731964409,0.00604389887303,0.00765743851662,-0.160756990314,-0.166077166796,0.348798811436,1012.75994873,4.07962274551,39.6100006104,0.0,0.0,0.0,0.0,0.540762543678,0.0,0.0,0.206977233291,0.0,0.0,0.0,0,3,1,,,,,,,,,,,,,,,,-0.0130057698116,-0.00336025538854,0.0142738791183,0.233502537012,0,2,1.0,0,1,0.0,-0.0,0.233502537012,0.0247524753213,1.0,0.789473712444,-0.998161792755,-2.47105876656e+14,7,108.0,128.0,115.0,123.0,0.0,0.0,0.0,0.0,,,-0.0933586135507,-0.0254020988941,0.100200861692,,,,,,,,,,,,,,,,,,,,,,,,,,,,,,,,,,,,,,,,12.0518093109,12.2683115005,-1.0,-1.0,,,,,,,,,,,9710787,PX4FMU_V1,unknown_git_version,test,305419904.0,,,,,,,,,,,,,,
0.0186302140355,0.0051443753764,2.42819929123,-0.0014108690666,-0.00418735155836,-0.0141193373129,-0.439541101456,0.204072728753,-9.84444999695,0.0,0.0,2.52897810936,0.233502537012,-0.439541101456,0.204072728753,-9.84444999695,0.00173062179238,-0.00968670472503,-0.0340215973556,-0.165343880653,-0.161083757877,0.353249371052,1012.73999023,4.24617195129,39.6100006104,0.0,0.0,0.0,0.0,0.544827818871,0.0,0.0,0.20763553679,0.0,0.0,0.0,0,3,1,,,,,,,,,,,,,,,,-0.0119261238724,-0.00279968231916,0.0172419138253,0.233502537012,0,2,1.0,0,1,0.0,-0.0,0.233502537012,0.0272277221084,0.99816006422,0.789473712444,-0.998161792755,-2.47105876656e+14,7,108.0,128.0,115.0,124.0,0.0,0.0,0.0,0.0,,,-0.0931502878666,-0.0257233697921,0.100826747715,,,,,,,,,,,,,,,,,,,,,,,,,,,,,,,,,,,,,,,,12.0601902008,12.2678956985,-1.0,-1.0,,,,,,,,,,,9732844,PX4FMU_V1,unknown_git_version,test,305419904.0,,,,,,,,,,,,,,
0.0188279785216,0.00525282230228,2.42905569077,0.00443347264081,0.0101969940588,0.0329502262175,0.274098962545,-0.357022255659,-9.53476428986,0.0,0.0,2.52897810936,0.233502537012,0.274098962545,-0.357022255659,-9.53476428986,-0.00554470997304,0.00632728077471,0.0225889254361,-0.185526266694,-0.142774581909,0.347018629313,1012.73999023,4.24617195129,39.5999984741,0.0,0.0,0.0,0.0,0.54788094759,0.0,0.0,0.207836762071,0.0,0.0,0.0,0,3,1,,,,,,,,,,,,,,,,-0.012814422138,-0.0047401455231,0.010053246282,0.233502537012,0,2,1.0,0,1,0.0,-0.0,0.233502537012,0.0272277221084,0.99816006422,0.789473712444,-0.998161792755,-2.47105876656e+14,7,110.0,125.0,118.0,121.0,0.0,0.0,0.0,0.0,,,-0.0941390097141,-0.0262656658888,0.0999718606472,,,,,,,,,,,,,,,,,,,,,,,,,,,,,,,,,,,,,,,,12.0601902008,12.2674798965,-1.0,-1.0,,,,,,,,,,,9754245,PX4FMU_V1,unknown_git_version,test,305419904.0,,,,,,,,,,,,,,
0.0187519993633,0.00520325591788,2.42710161209,0.0126499049366,0.00558970822021,0.00928195379674,0.0176454950124,-0.160790741444,-9.6463766098,0.0,0.0,2.52897810936,0.233502537012,0.0176454950124,-0.160790741444,-9.6463766098,0.0225971322507,0.0096614388749,0.043837659061,-0.146078914404,-0.16191598773,0.343458205462,1012.7199707,4.4127240181,39.5999984741,0.0,0.0,0.0,0.0,0.549402296543,0.0,0.0,0.208264812827,0.0,0.0,0.0,0,3,1,,,,,,,,,,,,,,,,-0.013833177276,-0.00410897657275,0.01389647834,0.233502537012,0,2,1.0,0,1,0.0,-0.0,0.233502537012,0.0247524753213,1.0,0.789473712444,-0.998161792755,-2.47105876656e+14,7,108.0,128.0,116.0,123.0,0.0,0.0,0.0,0.0,,,-0.0937591567636,-0.0260178036988,0.101925142109,,,,,,,,,,,,,,,,,,,,,,,,,,,,,,,,,,,,,,,,12.0601902008,12.2672729492,-1.0,-1.0,,,,,,,,,,,9775328,PX4FMU_V1,unknown_git_version,test,305419904.0,,,,,,,,,,,,,,
0.0187326986343,0.0052699027583,2.42554140091,0.000944424711633,0.00559477694333,-0.000366086111171,0.0153447650373,0.374539732933,-9.96273326874,0.0,0.0,2.52897810936,0.233502537012,0.0153447650373,0.374539732933,-9.96273326874,0.0127257984132,0.0101222973317,0.0388612821698,-0.195617452264,-0.16191598773,0.355029582977,1012.7699585,3.99634933472,39.5900001526,0.0,0.0,0.0,0.0,0.550729811192,0.0,0.0,0.207749038935,0.0,0.0,0.0,0,3,1,,,,,,,,,,,,,,,,-0.0122989136726,-0.00415295781568,0.015577852726,0.233502537012,0,2,1.0,0,1,0.0,-0.0,0.233502537012,0.0272277221084,0.99816006422,0.789473712444,-0.998161792755,-2.47105876656e+14,7,106.0,129.0,114.0,125.0,0.0,0.0,0.0,0.0,,,-0.0936626046896,-0.0263510532677,0.103486262262,,,,,,,,,,,,,,,,,,,,,,,,,,,,,,,,,,,,,,,,12.0685710907,12.2668676376,-1.0,-1.0,,,,,,,,,,,9796939,PX4FMU_V1,unknown_git_version,test,305419904.0,,,,,,,,,,,,,,
0.0188169423491,0.00518466392532,2.42526197433,-0.0087869996205,-0.000833421712741,0.000392518937588,-0.245566293597,0.0845066383481,-9.75321769714,0.0,0.0,2.52897810936,0.233502537012,-0.245566293597,0.0845066383481,-9.75321769714,-0.0236643645912,0.000473755353596,-0.0494705252349,-0.177269846201,-0.169406116009,0.360370218754,1012.75994873,4.07962274551,39.5900001526,0.0,0.0,0.0,0.0,0.555753052235,0.0,0.0,0.20889082551,0.0,0.0,0.0,0,3,1,,,,,,,,,,,,,,,,-0.011088591069,-0.00326188467443,0.0155058754608,0.233502537012,0,2,1.0,0,1,0.0,-0.0,0.233502537012,0.0272277221084,0.99816006422,0.789473712444,-0.998161792755,-2.47105876656e+14,7,108.0,128.0,115.0,124.0,0.0,0.0,0.0,0.0,,,-0.094083853066,-0.0259248428047,0.103765018284,,,,,,,,,,,,,,,,,,,,,,,,,,,,,,,,,,,,,,,,12.0601902008,12.266453743,-1.0,-1.0,,,,,,,,,,,9817679,PX4FMU_V1,unknown_git_version,test,305419904.0,,,,,,,,,,,,,,
0.0189437810332,0.00526271294802,2.42624855042,0.0148397358134,0.00257734488696,0.0612591393292,-0.441042006016,-0.754785060883,-9.46365737915,0.0,0.0,2.52897810936,0.233502537012,-0.441042006016,-0.754785060883,-9.46365737915,0.00933229271322,-0.00713619636372,0.0497078001499,-0.191947922111,-0.169406116009,0.358590006828,1012.7199707,4.4127240181,39.5900001526,0.0,0.0,0.0,0.0,0.558008909225,0.0,0.0,0.208684831858,0.0,0.0,0.0,0,3,1,,,,,,,,,,,,,,,,-0.01424250938,-0.00375602417625,0.00622801529244,0.233502537012,0,2,1.0,0,1,0.0,-0.0,0.233502537012,0.0247524753213,1.0,0.789473712444,-0.998161792755,-2.47105876656e+14,7,111.0,124.0,120.0,119.0,0.0,0.0,0.0,0.0,,,-0.0947180315852,-0.0263151507825,0.102779239416,,,,,,,,,,,,,,,,,,,,,,,,,,,,,,,,,,,,,,,,12.0601902008,12.2660417557,-1.0,-1.0,,,,,,,,,,,9838830,PX4FMU_V1,unknown_git_version,test,305419904.0,,,,,,,,,,,,,,
0.018844883889,0.00539697706699,2.42506098747,0.0102289142087,0.00346430926584,0.0333770178258,0.0412586405873,-0.240405887365,-9.89311408997,0.0,0.0,2.52897810936,0.233502537012,0.0412586405873,-0.240405887365,-9.89311408997,0.019019279629,-0.00504194945097,0.0878079682589,-0.153417959809,-0.162748232484,0.354139477015,1012.75,4.16289710999,39.5799980164,0.0,0.0,0.0,0.0,0.560435950756,0.0,0.0,0.208739727736,0.0,0.0,0.0,0,3,1,,,,,,,,,,,,,,,,-0.0135788153857,-0.00395860336721,0.010588648729,0.233502537012,0,2,1.0,0,1,0.0,-0.0,0.233502537012,0.0247524753213,1.0,0.789473712444,-0.998161792755,-2.47105876656e+14,7,107.0,128.0,116.0,124.0,0.0,0.0,0.0,0.0,,,-0.0942235141993,-0.0269864872098,0.103968009353,,,,,,,,,,,,,,,,,,,,,,,,,,,,,,,,,,,,,,,,12.043428421,12.2656135559,-1.0,-1.0,,,,,,,,,,,9861352,PX4FMU_V1,unknown_git_version,test,305419904.0,,,,,,,,,,,,,,
0.018694197759,0.00527612119913,2.42326188087,-0.00395740708336,0.00778494775295,-0.0329434014857,0.630435526371,0.62537753582,-9.7538394928,0.0,0.0,2.52897810936,0.234771579504,0.630435526371,0.62537753582,-9.7538394928,0.0100578162819,0.0155504699796,-0.0229863803834,-0.160756990314,-0.178560689092,0.354139477015,1012.75,4.16289710999,39.5799980164,0.0,0.0,0.0,0.0,0.561376869678,0.0,0.0,0.208532199264,0.0,0.0,0.0,0,3,1,,,,,,,,,,,,,,,,-0.011636653915,-0.00444172043353,0.0208063405007,0.234771579504,0,2,1.0,0,1,0.0,-0.0,0.234771579504,0.0247524753213,0.99816006422,0.789473712444,-0.996323525906,-2.47105876656e+14,7,106.0,131.0,113.0,128.0,0.0,0.0,0.0,0.0,,,-0.093470133841,-0.0263821333647,0.105765536427,,,,,,,,,,,,,,,,,,,,,,,,,,,,,,,,,,,,,,,,12.0601902008,12.2654085159,-1.0,-1.0,,,,,,,,,,,9882225,PX4FMU_V1,unknown_git_version,test,305419904.0,,,,,,,,,,,,,,
0.0189414154738,0.00517376791686,2.42348742485,-0.00309670786373,0.00325381802395,-0.0240895375609,-0.742632687092,-0.3097268641,-9.75857830048,0.0,0.0,2.52897810936,0.234771579504,-0.742632687092,-0.3097268641,-9.75857830048,-0.0256543233991,0.00912913773209,-0.0811880528927,-0.179104611278,-0.166909396648,0.363040536642,1012.7699585,3.99634933472,39.5699996948,0.0,0.0,0.0,0.0,0.565257430077,0.0,0.0,0.209000200033,0.0,0.0,0.0,0,3,1,,,,,,,,,,,,,,,,-0.0119092343375,-0.00378614594229,0.0194443799555,0.234771579504,0,2,1.0,0,1,0.0,-0.0,0.234771579504,0.0247524753213,0.99816006422,0.789473712444,-0.998161792755,-2.47105876656e+14,7,106.0,130.0,114.0,127.0,0.0,0.0,0.0,0.0,,,-0.0947062075138,-0.0258703827858,0.105539649725,,,,,,,,,,,,,,,,,,,,,,,,,,,,,,,,,,,,,,,,12.043428421,12.2649812698,-1.0,-1.0,,,,,,,,,,,9903316,PX4FMU_V1,unknown_git_version,test,305419904.0,,,,,,,,,,,,,,
0.0188367776573,0.00518430303782,2.42336058617,0.00249229301699,-0.0121229048818,0.053746201098,-1.43202936649,-0.568319559097,-9.69147491455,0.0,0.0,2.52897810936,0.234771579504,-1.43202936649,-0.568319559097,-9.69147491455,-0.00804027821869,-0.0145672569051,0.0296990592033,-0.193782687187,-0.164412692189,0.359480112791,1012.73999023,4.24617195129,39.5699996948,0.0,0.0,0.0,0.0,0.56957834959,0.0,0.0,0.209850594401,0.0,0.0,0.0,0,3,1,,,,,,,,,,,,,,,,-0.0125677930191,-0.00179401843343,0.00778803089634,0.234771579504,0,2,1.0,0,1,0.0,-0.0,0.234771579504,0.0247524753213,1.0,0.789473712444,-0.998161792755,-2.47105876656e+14,7,110.0,126.0,118.0,122.0,0.0,0.0,0.0,0.0,,,-0.0941830426455,-0.0259230472147,0.105666406453,,,,,,,,,,,,,,,,,,,,,,,,,,,,,,,,,,,,,,,,12.0518093109,12.2645635605,-1.0,-1.0,,,,,,,,,,,9925110,PX4FMU_V1,unknown_git_version,test,305419904.0,,,,,,,,,,,,,,
0.0188888926059,0.00574383884668,2.42135119438,0.0234850533307,0.0182348489761,0.0484168305993,1.10912644863,0.024466548115,-9.92193698883,0.0,0.0,2.52897810936,0.234771579504,1.10912644863,0.024466548115,-9.92193698883,0.0332988202572,0.00447246944532,0.106808468699,-0.150665804744,-0.171902805567,0.350579053164,1012.70996094,4.49600076675,39.5699996948,0.0,0.0,0.0,0.0,0.569866776466,0.0,0.0,0.208401829004,0.0,0.0,0.0,0,3,1,,,,,,,,,,,,,,,,-0.0153307011351,-0.00610424764454,0.00888965651393,0.234771579504,0,2,1.0,0,1,0.0,-0.0,0.234771579504,0.0247524753213,1.0,0.789473712444,-0.998161792755,-2.47105876656e+14,7,107.0,128.0,118.0,124.0,0.0,0.0,0.0,0.0,,,-0.0944434180856,-0.0287209041417,0.107681207359,,,,,,,,,,,,,,,,,,,,,,,,,,,,,,,,,,,,,,,,12.0601902008,12.2641553879,-1.0,-1.0,,,,,,,,,,,9945665,PX4FMU_V1,unknown_git_version,test,305419904.0,,,,,,,,,,,,,,
0.0188367124647,0.00520054576918,2.42136120796,-0.00952502060682,0.0013012427371,-0.0231485515833,0.372980475426,0.0664106234908,-9.68513584137,0.0,0.0,2.52897810936,0.256345182657,0.372980475426,0.0664106234908,-9.68513584137,-0.00477894069627,0.0247056502849,-0.0489620752633,-0.168096035719,-0.151929184794,0.356809794903,1012.75994873,4.07962274551,39.5599975586,0.0,0.0,0.0,0.0,0.571422755718,0.0,0.0,0.208318963647,0.0,0.0,0.0,0,3,1,,,,,,,,,,,,,,,,-0.0110054984689,-0.00354971503839,0.0196221657097,0.256345182657,0,2,1.0,0,1,0.0,-0.0,0.256345182657,0.0272277221084,0.99816006422,0.789473712444,-0.998161792755,-2.47105876656e+14,7,118.0,141.0,125.0,137.0,0.0,0.0,0.0,0.0,,,-0.0941827073693,-0.0260042585433,0.107665888965,,,,,,,,,,,,,,,,,,,,,,,,,,,,,,,,,,,,,,,,12.0601902008,12.2639513016,-1.0,-1.0,,,,,,,,,,,9966854,PX4FMU_V1,unknown_git_version,test,305419904.0,,,,,,,,,,,,,,
0.0188311282545,0.00501949852332,2.42338347435,-0.00378738064319,0.000782098388299,-0.0178275741637,-1.01547694206,-0.0900754779577,-9.74349784851,0.0,0.0,2.52897810936,0.294416248798,-1.01547694206,-0.0900754779577,-9.74349784851,-0.00320475851186,0.0236830338836,-0.0642078742385,-0.203873887658,-0.148600235581,0.356809794903,1012.78997803,3.82980418205,39.5599975586,0.0,0.0,0.0,0.0,0.577716767788,0.0,0.0,0.20971287787,0.0,0.0,0.0,0,3,1,,,,,,,,,,,,,,,,-0.0117477718741,-0.00336453993805,0.0185204017907,0.294416248798,0,2,1.0,0,1,0.0,-0.0,0.294416248798,0.0272277221084,0.99816006422,0.789473712444,-0.998161792755,-2.47105876656e+14,7,139.0,160.0,146.0,154.0,0.0,0.0,0.0,0.0,,,-0.0941548645496,-0.0250989794731,0.105641767383,,,,,,,,,,,,,,,,,,,,,,,,,,,,,,,,,,,,,,,,11.9931430817,12.2633514404,-1.0,-1.0,,,,,,,,,,,9989334,PX4FMU_V1,unknown_git_version,test,305419904.0,,,,,,,,,,,,,,
0.01880745776,0.00525266351178,2.42391467094,-0.00519381836057,-0.0190028138459,0.0324257314205,-1.33608150482,-0.280148863792,-9.74992275238,0.0,0.0,2.52897810936,0.313451766968,-1.33608150482,-0.280148863792,-9.74992275238,-0.0220573116094,-0.0441973060369,0.0402016043663,-0.201121732593,-0.160251513124,0.37194159627,1012.77996826,3.91307640076,39.5499992371,0.0,0.0,0.0,0.0,0.585321545601,0.0,0.0,0.212039649487,0.0,0.0,0.0,0,3,1,,,,,,,,,,,,,,,,-0.0115495380014,-0.000944067316595,0.0109030473977,0.313451766968,0,2,1.0,0,1,0.0,-0.0,0.313451766968,0.0272277221084,0.99816006422,0.789473712444,-0.998161792755,-2.47105876656e+14,7,149.0,168.0,157.0,163.0,0.0,0.0,0.0,0.0,,,-0.0940364226699,-0.0262648705393,0.105112709105,,,,,,,,,,,,,,,,,,,,,,,,,,,,,,,,,,,,,,,,11.8422851562,12.2625684738,-1.0,-1.0,,,,,,,,,,,10010244,PX4FMU_V1,unknown_git_version,test,305419904.0,,,,,,,,,,,,,,
0.0186945423484,0.00533132674173,2.42365336418,-0.000746389734559,0.00325115490705,0.0290775597095,0.934894382954,-0.114819847047,-9.73345851898,0.0,0.0,2.52897810936,0.337563455105,0.934894382954,-0.114819847047,-9.73345851898,-0.00329512683675,-0.0170929785818,0.058237913996,-0.200204342604,-0.17023833096,0.377282261848,1012.77996826,3.91307640076,39.5499992371,0.0,0.0,0.0,0.0,0.591984808445,0.0,0.0,0.213799417019,0.0,0.0,0.0,0,3,1,,,,,,,,,,,,,,,,-0.0120543055236,-0.00388821400702,0.0114445323125,0.337563455105,0,2,1.0,0,1,0.0,-0.0,0.337563455105,0.0247524753213,1.0,0.789473712444,-0.998161792755,-2.47105876656e+14,7,162.0,180.0,170.0,175.0,0.0,0.0,0.0,0.0,,,-0.0934718251228,-0.0266581848264,0.105374440551,,,,,,,,,,,,,,,,,,,,,,,,,,,,,,,,,,,,,,,,11.8171424866,12.2617702484,-1.0,-1.0,,,,,,,,,,,10031403,PX4FMU_V1,unknown_git_version,test,305419904.0,,,,,,,,,,,,,,
0.018655648455,0.00538028078154,2.42494940758,0.000553551770281,0.0121242776513,0.00500872265548,1.38101243973,-0.259926825762,-9.60504150391,0.0,0.0,2.52897810936,0.341370552778,1.38101243973,-0.259926825762,-9.60504150391,-0.0106891328469,-0.00730961747468,0.0277047641575,-0.192865312099,-0.164412692189,0.368381172419,1012.73999023,4.24617195129,39.5499992371,0.0,0.0,0.0,0.0,0.594612538815,0.0,0.0,0.213575646281,0.0,0.0,0.0,0,3,1,,,,,,,,,,,,,,,,-0.0121980132535,-0.00507354177535,0.0148605247959,0.341370552778,0,2,1.0,0,1,0.0,-0.0,0.341370552778,0.0272277221084,0.99816006422,0.789473712444,-0.998161792755,-2.47105876656e+14,7,162.0,183.0,170.0,179.0,0.0,0.0,0.0,0.0,,,-0.0932773277164,-0.0269029699266,0.104078881443,,,,,,,,,,,,,,,,,,,,,,,,,,,,,,,,,,,,,,,,11.917714119,12.2610406876,-1.0,-1.0,,,,,,,,,,,10053827,PX4FMU_V1,unknown_git_version,test,305419904.0,,,,,,,,,,,,,,
0.0187228806317,0.00521848304197,2.42432260513,0.0117374798283,0.00891002453864,-0.00875384360552,1.41718733311,-0.853674471378,-9.69320297241,0.0,0.0,2.52897810936,0.341370552778,1.41718733311,-0.853674471378,-9.69320297241,0.00421416992322,0.0152081232518,0.00110617070459,-0.186443656683,-0.174399510026,0.369271278381,1012.75994873,4.07962274551,39.5400009155,0.0,0.0,0.0,0.0,0.598414838314,0.0,0.0,0.214907348156,0.0,0.0,0.0,0,3,1,,,,,,,,,,,,,,,,-0.0136956376955,-0.00455051567405,0.0170187093318,0.341370552778,0,2,1.0,0,1,0.0,-0.0,0.341370552778,0.0272277221084,0.99816006422,0.789473712444,-0.998161792755,-2.47105876656e+14,7,160.0,185.0,169.0,180.0,0.0,0.0,0.0,0.0,,,-0.0936135798693,-0.0260939430445,0.104704216123,,,,,,,,,,,,,,,,,,,,,,,,,,,,,,,,,,,,,,,,11.9512376785,12.2607307434,-1.0,-1.0,,,,,,,,,,,10074638,PX4FMU_V1,unknown_git_version,test,305419904.0,,,,,,,,,,,,,,
0.0184372067451,0.00491659622639,2.42459988594,0.0117157725617,0.0108756702393,-0.0113137001172,0.162589669228,-0.475760042667,-9.70077323914,0.0,0.0,2.52897810936,0.341370552778,0.162589669228,-0.475760042667,-9.70077323914,0.041876129806,0.0343892946839,-0.00895835924894,-0.194700077176,-0.160251513124,0.36571085453,1012.75994873,4.07962274551,39.5400009155,0.0,0.0,0.0,0.0,0.602997481823,0.0,0.0,0.215859651566,0.0,0.0,0.0,0,3,1,,,,,,,,,,,,,,,,-0.0135071352124,-0.00460980413482,0.017360586673,0.341370552778,0,2,1.0,0,1,0.0,-0.0,0.341370552778,0.0272277221084,0.99816006422,0.789473712444,-0.998161792755,-2.47105876656e+14,7,160.0,185.0,169.0,180.0,0.0,0.0,0.0,0.0,,,-0.0921852737665,-0.024584364146,0.104423545301,,,,,,,,,,,,,,,,,,,,,,,,,,,,,,,,,,,,,,,,11.9428567886,12.2601118088,-1.0,-1.0,,,,,,,,,,,10095907,PX4FMU_V1,unknown_git_version,test,305419904.0,,,,,,,,,,,,,,
0.0187481231987,0.00510704843327,2.42508196831,0.0353755876422,0.0162050202489,-0.00159951671958,0.0634464100003,-0.743260502815,-9.78169059753,0.0,0.0,2.52897810936,0.34263959527,0.0634464100003,-0.743260502815,-9.78169059753,0.0614638850093,0.0316844247282,0.00410666968673,-0.189195767045,-0.151096940041,0.370161414146,1012.79998779,3.74653244019,39.5400009155,0.0,0.0,0.0,0.0,0.609546303749,0.0,0.0,0.217900067568,0.0,0.0,0.0,0,3,1,,,,,,,,,,,,,,,,-0.0167850013822,-0.00542642828077,0.0158315207809,0.34263959527,0,2,1.0,0,1,0.0,-0.0,0.34263959527,0.0272277221084,0.99816006422,0.789473712444,-0.998161792755,-2.47105876656e+14,7,161.0,185.0,171.0,180.0,0.0,0.0,0.0,0.0,,,-0.0937398225069,-0.0255367383361,0.103943943977,,,,,,,,,,,,,,,,,,,,,,,,,,,,,,,,,,,,,,,,11.9512376785,12.2594938278,-1.0,-1.0,,,,,,,,,,,10117701,PX4FMU_V1,unknown_git_version,test,305419904.0,,,,,,,,,,,,,,
0.018614878878,0.00499554071575,2.42524051666,-0.00713473092765,-0.0105752963573,-0.00202593905851,-1.01539480686,0.309417307377,-9.97913837433,0.0,0.0,2.52897810936,0.36167511344,-1.01539480686,0.309417307377,-9.97913837433,0.0134883895516,-0.00297569297254,-0.0113842785358,-0.207543388009,-0.167741626501,0.369271278381,1012.77996826,3.91307640076,39.5400009155,0.0,0.0,0.0,0.0,0.616415739059,0.0,0.0,0.220094457269,0.0,0.0,0.0,0,3,1,,,,,,,,,,,,,,,,-0.0111720543355,-0.00187249900773,0.0158715229481,0.36167511344,0,2,1.0,0,1,0.0,-0.0,0.36167511344,0.0272277221084,0.99816006422,0.789473712444,-0.998161792755,-2.47105876656e+14,7,173.0,194.0,179.0,190.0,0.0,0.0,0.0,0.0,,,-0.0930736139417,-0.0249791350216,0.10378421098,,,,,,,,,,,,,,,,,,,,,,,,,,,,,,,,,,,,,,,,11.9512376785,12.2588777542,-1.0,-1.0,,,,,,,,,,,10138306,PX4FMU_V1,unknown_git_version,test,305419904.0,,,,,,,,,,,,,,
0.0182521343231,0.00494438037276,2.42539048195,-0.0296756364405,-0.0090764798224,-0.0040769604966,-1.46705746651,1.48871064186,-10.4469528198,0.0,0.0,2.52897810936,0.375634521246,-1.46705746651,1.48871064186,-10.4469528198,-0.0182535685599,-0.00824373215437,-0.0200982578099,-0.197452202439,-0.163580462337,0.364820748568,1012.77996826,3.91307640076,39.5400009155,0.0,0.0,0.0,0.0,0.619670927525,0.0,0.0,0.220912918448,0.0,0.0,0.0,0,3,1,,,,,,,,,,,,,,,,-0.00800595805049,-0.00203408417292,0.0161564610898,0.375634521246,0,2,1.0,0,1,0.0,-0.0,0.375634521246,0.0247524753213,0.99816006422,0.791979968548,-0.998161792755,-2.47105876656e+14,7,181.0,200.0,186.0,197.0,0.0,0.0,0.0,0.0,,,-0.0912599340081,-0.0247232820839,0.103632777929,,,,,,,,,,,,,,,,,,,,,,,,,,,,,,,,,,,,,,,,11.8422851562,12.2584609985,-1.0,-1.0,,,,,,,,,,,10159410,PX4FMU_V1,unknown_git_version,test,305419904.0,,,,,,,,,,,,,,
0.0183009039611,0.0050683869049,2.42587137222,-0.0238849390298,0.00195800163783,-0.0160018727183,-0.9731580019,1.2900134325,-10.2001752853,0.0,0.0,2.52897810936,0.378172576427,-0.9731580019,1.2900134325,-10.2001752853,-0.0331717990339,5.40268956684e-05,-0.0278452895582,-0.201121732593,-0.159419283271,0.39063385129,1012.80999756,3.66326165199,39.5200004578,0.0,0.0,0.0,0.0,0.627678692341,0.0,0.0,0.223120182753,0.0,0.0,0.0,0,3,1,,,,,,,,,,,,,,,,-0.00879044551402,-0.00354917626828,0.0178732387722,0.378172576427,0,2,1.0,0,1,0.0,-0.0,0.378172576427,0.0247524753213,0.99816006422,0.789473712444,-0.996323525906,-2.47105876656e+14,7,180.0,202.0,187.0,199.0,0.0,0.0,0.0,0.0,,,-0.0915037542582,-0.0253433547914,0.103153049946,,,,,,,,,,,,,,,,,,,,,,,,,,,,,,,,,,,,,,,,11.8339042664,12.257645607,-1.0,-1.0,,,,,,,,,,,10181747,PX4FMU_V1,unknown_git_version,test,305419904.0,,,,,,,,,,,,,,
0.0180772189051,0.00514735886827,2.42581629753,-0.0331276841462,-0.00798565335572,-0.00220441166312,-0.366498500109,1.61642146111,-9.87187671661,0.0,0.0,2.52897810936,0.378172576427,-0.366498500109,1.61642146111,-9.87187671661,-0.0528126582503,-0.0223509706557,-0.0185376144946,-0.182774111629,-0.171070575714,0.368381172419,1012.75994873,4.07962274551,39.5200004578,0.0,0.0,0.0,0.0,0.634604334831,0.0,0.0,0.225177958608,0.0,0.0,0.0,0,3,1,,,,,,,,,,,,,,,,-0.00744349090382,-0.00230783084407,0.0158118996769,0.378172576427,0,2,1.0,0,1,0.0,-0.0,0.378172576427,0.0247524753213,0.99816006422,0.789473712444,-0.996323525906,-2.47105876656e+14,7,182.0,201.0,188.0,198.0,0.0,0.0,0.0,0.0,,,-0.0903853103518,-0.0257381983101,0.103208243847,,,,,,,,,,,,,,,,,,,,,,,,,,,,,,,,,,,,,,,,11.8841905594,12.2569074631,-1.0,-1.0,,,,,,,,,,,10202581,PX4FMU_V1,unknown_git_version,test,305419904.0,,,,,,,,,,,,,,
0.018422132358,0.00505019770935,2.42573857307,0.0122611774132,0.00722823943943,0.0210033264011,0.0325918793678,0.242739632726,-9.57391452789,0.0,0.0,2.52897810936,0.379441618919,0.0325918793678,0.242739632726,-9.57391452789,-0.0132002849132,0.0188731048256,0.0139066800475,-0.169930800796,-0.161083757877,0.378172367811,1012.77996826,3.91307640076,39.5099983215,0.0,0.0,0.0,0.0,0.640013217926,0.0,0.0,0.226465493441,0.0,0.0,0.0,0,3,1,,,,,,,,,,,,,,,,-0.0135682374239,-0.00422248523682,0.0123424045742,0.379441618919,0,2,1.0,0,1,0.0,-0.0,0.379441618919,0.0247524753213,0.99816006422,0.789473712444,-0.996323525906,-2.47105876656e+14,7,182.0,202.0,191.0,197.0,0.0,0.0,0.0,0.0,,,-0.092109888792,-0.0252524167299,0.103286020458,,,,,,,,,,,,,,,,,,,,,,,,,,,,,,,,,,,,,,,,11.917714119,12.2562217712,-1.0,-1.0,,,,,,,,,,,10223890,PX4FMU_V1,unknown_git_version,test,305419904.0,,,,,,,,,,,,,,
0.0184263922274,0.00514286477119,2.42679309845,-0.00588572956622,-0.0026443451643,0.0123881176114,-4.81898896396e-05,0.834176540375,-9.71630477905,0.0,0.0,2.52897810936,0.378172576427,-4.81898896396e-05,0.834176540375,-9.71630477905,-0.0392914749682,-0.0220523159951,-0.0126911802217,-0.199286967516,-0.16191598773,0.379062443972,1012.73999023,4.24617195129,39.5099983215,0.0,0.0,0.0,0.0,0.641859650612,0.0,0.0,0.225909620523,0.0,0.0,0.0,0,3,1,,,,,,,,,,,,,,,,-0.0112119046971,-0.00299928430468,0.0134766316041,0.378172576427,0,2,1.0,0,1,0.0,-0.0,0.378172576427,0.0247524753213,1.0,0.789473712444,-0.998161792755,-2.47105876656e+14,7,182.0,201.0,191.0,196.0,0.0,0.0,0.0,0.0,,,-0.0921311527491,-0.025715764612,0.102232322097,,,,,,,,,,,,,,,,,,,,,,,,,,,,,,,,,,,,,,,,11.9260950089,12.2555446625,-1.0,-1.0,,,,,,,,,,,10246221,PX4FMU_V1,unknown_git_version,test,305419904.0,,,,,,,,,,,,,,
0.0186361856759,0.00501484237611,2.42677044868,0.00780320772901,0.00401841429994,0.0199683830142,-0.577178478241,-0.399241119623,-9.99722194672,0.0,0.0,2.52897810936,0.379441618919,-0.577178478241,-0.399241119623,-9.99722194672,-0.0143663845956,0.00989271793514,0.025424355641,-0.176352456212,-0.149432465434,0.368381172419,1012.75,4.16289710999,39.5,0.0,0.0,0.0,0.0,0.643032312393,0.0,0.0,0.225616037846,0.0,0.0,0.0,0,3,1,,,,,,,,,,,,,,,,-0.0131278336048,-0.00378223019652,0.0123428879306,0.379441618919,0,2,1.0,0,1,0.0,-0.0,0.379441618919,0.0247524753213,1.0,0.789473712444,-0.998161792755,-2.47105876656e+14,7,182.0,202.0,191.0,197.0,0.0,0.0,0.0,0.0,,,-0.0931801274419,-0.0250756647438,0.10225430131,,,,,,,,,,,,,,,,,,,,,,,,,,,,,,,,,,,,,,,,11.9344758987,12.2552232742,-1.0,-1.0,,,,,,,,,,,10267093,PX4FMU_V1,unknown_git_version,test,305419904.0,,,,,,,,,,,,,,
0.0188577044755,0.00513362139463,2.42634153366,0.0129878176376,0.0166331864893,0.00367600563914,0.115678347647,-1.41756784916,-9.61986923218,0.0,0.0,2.52897810936,0.403553307056,0.115678347647,-1.41756784916,-9.61986923218,-0.0119275050238,0.0204668715596,0.0319784544408,-0.177269846201,-0.171070575714,0.370161414146,1012.7199707,4.4127240181,39.5,0.0,0.0,0.0,0.0,0.64481651783,0.0,0.0,0.22472435236,0.0,0.0,0.0,0,3,1,,,,,,,,,,,,,,,,-0.0139458179474,-0.00549936667085,0.0148513382301,0.403553307056,0,2,1.0,0,1,0.0,-0.0,0.403553307056,0.0272277221084,0.99816006422,0.789473712444,-0.998161792755,-2.47105876656e+14,7,191.0,217.0,202.0,211.0,0.0,0.0,0.0,0.0,,,-0.0942877084017,-0.0256696343422,0.102684922516,,,,,,,,,,,,,,,,,,,,,,,,,,,,,,,,,,,,,,,,11.9093332291,12.2545318604,-1.0,-1.0,,,,,,,,,,,10288283,PX4FMU_V1,unknown_git_version,test,305419904.0,,,,,,,,,,,,,,
0.0185594093055,0.00520332111046,2.42650270462,-0.00282561592758,-0.00780237047002,0.0203615315259,-0.168943852186,-0.876988768578,-9.44278144836,0.0,0.0,2.52897810936,0.413705587387,-0.168943852186,-0.876988768578,-9.44278144836,-0.0172897689044,-0.0139736123383,0.0591004304588,-0.198369577527,-0.146935760975,0.38173276186,1012.75,4.16289710999,39.5,0.0,0.0,0.0,0.0,0.647572755814,0.0,0.0,0.223954737186,0.0,0.0,0.0,0,3,1,,,,,,,,,,,,,,,,-0.0116961747408,-0.00236804410815,0.0123243108392,0.413705587387,0,2,1.0,0,1,0.0,-0.0,0.413705587387,0.0272277221084,0.99816006422,0.789473712444,-0.998161792755,-2.47105876656e+14,7,198.0,221.0,206.0,216.0,0.0,0.0,0.0,0.0,,,-0.0927961990237,-0.0260180961341,0.102523595095,,,,,,,,,,,,,,,,,,,,,,,,,,,,,,,,,,,,,,,,11.8506669998,12.2536411285,-1.0,-1.0,,,,,,,,,,,10310097,PX4FMU_V1,unknown_git_version,test,305419904.0,,,,,,,,,,,,,,
0.0182355474681,0.00494871521369,2.42799019814,-0.00248370855115,-0.00194647256285,0.034516081214,-0.408599346876,-0.807040333748,-9.60198974609,0.0,0.0,2.52897810936,0.413705587387,-0.408599346876,-0.807040333748,-9.60198974609,0.00484333373606,0.0127041935921,0.0637916848063,-0.203873887658,-0.146935760975,0.379062443972,1012.77996826,3.91307640076,39.5,0.0,0.0,0.0,0.0,0.650714218616,0.0,0.0,0.223698496819,0.0,0.0,0.0,0,3,1,,,,,,,,,,,,,,,,-0.0115301283076,-0.00296380207874,0.00997751951218,0.413705587387,0,2,1.0,0,1,0.0,-0.0,0.413705587387,0.0272277221084,0.99816006422,0.789473712444,-0.998161792755,-2.47105876656e+14,7,201.0,219.0,207.0,215.0,0.0,0.0,0.0,0.0,,,-0.0911770090461,-0.0247449520975,0.101032875478,,,,,,,,,,,,,,,,,,,,,,,,,,,,,,,,,,,,,,,,11.8590478897,12.2528104782,-1.0,-1.0,,,,,,,,,,,10330667,PX4FMU_V1,unknown_git_version,test,305419904.0,,,,,,,,,,,,,,
0.0180778894573,0.00499144755304,2.42981982231,0.00278764730319,0.00507069285959,0.011312449351,-0.0317201688886,-1.17765641212,-9.79224967957,0.0,0.0,2.52897810936,0.413705587387,-0.0317201688886,-1.17765641212,-9.79224967957,0.0025258474052,0.0100893490016,0.018078673631,-0.199286967516,-0.138613417745,0.376392126083,1012.75994873,4.07962274551,39.5,0.0,0.0,0.0,0.0,0.653730154037,0.0,0.0,0.224335685372,0.0,0.0,0.0,0,3,1,,,,,,,,,,,,,,,,-0.0121129238978,-0.00390380737372,0.0131836263463,0.413705587387,0,2,1.0,0,1,0.0,-0.0,0.413705587387,0.0272277221084,0.99816006422,0.789473712444,-0.998161792755,-2.47105876656e+14,7,200.0,219.0,208.0,215.0,0.0,0.0,0.0,0.0,,,-0.0903886929154,-0.0249585974962,0.0992032885551,,,,,,,,,,,,,,,,,,,,,,,,,,,,,,,,,,,,,,,,11.8590478897,12.2524166107,-1.0,-1.0,,,,,,,,,,,10351811,PX4FMU_V1,unknown_git_version,test,305419904.0,,,,,,,,,,,,,,
0.0180804282427,0.00505727343261,2.43127799034,0.00114480766933,0.00430190190673,-0.000874771736562,-0.346885085106,-0.791018128395,-10.1286659241,0.0,0.0,2.52897810936,0.414974629879,-0.346885085106,-0.791018128395,-10.1286659241,-0.0100180851296,0.0056819031015,0.0212850011885,-0.190113157034,-0.143606826663,0.374611914158,1012.75,4.16289710999,39.469997406,0.0,0.0,0.0,0.0,0.657861530781,0.0,0.0,0.224418565631,0.0,0.0,0.0,0,3,1,,,,,,,,,,,,,,,,-0.0119010005146,-0.00384665373713,0.0147931110114,0.414974629879,0,2,1.0,0,1,0.0,-0.0,0.414974629879,0.0272277221084,0.99816006422,0.789473712444,-0.998161792755,-2.47105876656e+14,7,199.0,222.0,207.0,217.0,0.0,0.0,0.0,0.0,,,-0.0904013589025,-0.0252877436578,0.097745962441,,,,,,,,,,,,,,,,,,,,,,,,,,,,,,,,,,,,,,,,11.8841905594,12.2516889572,-1.0,-1.0,,,,,,,,,,,10374339,PX4FMU_V1,unknown_git_version,test,305419904.0,,,,,,,,,,,,,,
0.0182325765491,0.00517170550302,2.43065834045,0.017089439556,0.0120954783633,-0.0246535092592,-0.236885666847,-0.830937445164,-9.74134254456,0.0,0.0,2.52897810936,0.414974629879,-0.236885666847,-0.830937445164,-9.74134254456,0.00927537027746,0.0159523990005,-0.00609589554369,-0.180022001266,-0.159419283271,0.37194159627,1012.75,4.16289710999,39.469997406,0.0,0.0,0.0,0.0,0.660945117474,0.0,0.0,0.224039047956,0.0,0.0,0.0,0,3,1,,,,,,,,,,,,,,,,-0.014072698541,-0.00493420707062,0.0184530522674,0.414974629879,0,2,1.0,0,1,0.0,-0.0,0.414974629879,0.0272277221084,0.99816006422,0.789473712444,-0.998161792755,-2.47105876656e+14,7,197.0,223.0,207.0,218.0,0.0,0.0,0.0,0.0,,,-0.0911620929837,-0.0258599612862,0.0983668342233,,,,,,,,,,,,,,,,,,,,,,,,,,,,,,,,,,,,,,,,11.8841905594,12.250954628,-1.0,-1.0,,,,,,,,,,,10395384,PX4FMU_V1,unknown_git_version,test,305419904.0,,,,,,,,,,,,,,
0.0184614639729,0.00524995662272,2.43044376373,0.0195550601929,0.00285161775537,-0.0239573083818,-0.0507282726467,-0.75063675642,-9.6650428772,0.0,0.0,2.52897810936,0.416243642569,-0.0507282726467,-0.75063675642,-9.6650428772,0.0111840749159,0.00554180052131,-0.0094899693504,-0.207543388009,-0.1535936445,0.37194159627,1012.72998047,4.32944774628,39.469997406,0.0,0.0,0.0,0.0,0.662323415279,0.0,0.0,0.22312425077,0.0,0.0,0.0,0,3,1,,,,,,,,,,,,,,,,-0.0145419947803,-0.00378337549046,0.0183810293674,0.416243642569,0,2,1.0,0,1,0.0,-0.0,0.416243642569,0.0272277221084,0.99816006422,0.789473712444,-0.998161792755,-2.47105876656e+14,7,197.0,224.0,207.0,219.0,0.0,0.0,0.0,0.0,,,-0.0923064425588,-0.0262512713671,0.0985828787088,,,,,,,,,,,,,,,,,,,,,,,,,,,,,,,,,,,,,,,,11.8674287796,12.2501964569,-1.0,-1.0,,,,,,,,,,,10416243,PX4FMU_V1,unknown_git_version,test,305419904.0,,,,,,,,,,,,,,
0.0184428468347,0.00522767705843,2.4306743145,-0.00466362945735,-0.00755522865802,0.00617536623031,-0.168005347252,-0.467209935188,-9.96529769897,0.0,0.0,2.52897810936,0.428934007883,-0.168005347252,-0.467209935188,-9.96529769897,-0.0117963412777,-0.0063915066421,0.0296910107136,-0.187361031771,-0.176063984632,0.374611914158,1012.75994873,4.07962274551,39.4500007629,0.0,0.0,0.0,0.0,0.665296375751,0.0,0.0,0.222801789641,0.0,0.0,0.0,0,3,1,,,,,,,,,,,,,,,,-0.0113814687356,-0.00241600209847,0.0138265145943,0.428934007883,0,2,1.0,0,1,0.0,-0.0,0.428934007883,0.0272277221084,0.99816006422,0.789473712444,-0.998161792755,-2.47105876656e+14,7,206.0,229.0,214.0,224.0,0.0,0.0,0.0,0.0,,,-0.0922133922577,-0.0261398609728,0.0983521267772,,,,,,,,,,,,,,,,,,,,,,,,,,,,,,,,,,,,,,,,11.8758096695,12.2494478226,-1.0,-1.0,,,,,,,,,,,10438621,PX4FMU_V1,unknown_git_version,test,305419904.0,,,,,,,,,,,,,,
0.0181888770312,0.00509253283963,2.43049621582,-0.00754211377352,-0.00045567881898,0.00408173818141,-0.133541077375,-0.0640448629856,-10.2391843796,0.0,0.0,2.52897810936,0.456852793694,-0.133541077375,-0.0640448629856,-10.2391843796,-0.00780453253537,0.0109315700829,0.00733353430405,-0.183691501617,-0.151096940041,0.387073397636,1012.75,4.16289710999,39.4500007629,0.0,0.0,0.0,0.0,0.666948258877,0.0,0.0,0.222513243556,0.0,0.0,0.0,0,3,1,,,,,,,,,,,,,,,,-0.0108421919867,-0.00325108971447,0.014166967012,0.456852793694,0,2,1.0,0,1,0.0,-0.0,0.456852793694,0.0247524753213,1.0,0.789473712444,-0.998161792755,-2.47105876656e+14,7,207.0,228.0,214.0,223.0,0.0,0.0,0.0,0.0,,,-0.0909435898066,-0.0254640635103,0.0985281839967,,,,,,,,,,,,,,,,,,,,,,,,,,,,,,,,,,,,,,,,11.7919998169,12.2489900589,-1.0,-1.0,,,,,,,,,,,10459483,PX4FMU_V1,unknown_git_version,test,305419904.0,,,,,,,,,,,,,,
0.0184801351279,0.00521691190079,2.43193411827,0.0197176486254,0.0117969922721,-0.0179369673133,0.382447719574,-0.151622131467,-9.70943927765,0.0,0.0,2.52897810936,0.459390848875,0.382447719574,-0.151622131467,-9.70943927765,0.00134490733035,0.00685804709792,-0.0354312621057,-0.204791232944,-0.125297650695,0.411996394396,1012.79998779,3.74653244019,39.4500007629,0.0,0.0,0.0,0.0,0.671555101871,0.0,0.0,0.22205235064,0.0,0.0,0.0,0,3,1,,,,,,,,,,,,,,,,-0.0145752746612,-0.0049247937277,0.0172543544322,0.459390848875,0,2,1.0,0,1,0.0,-0.0,0.459390848875,0.0247524753213,1.0,0.789473712444,-0.998161792755,-2.47105876656e+14,7,220.0,245.0,230.0,240.0,0.0,0.0,0.0,0.0,,,-0.0923998504877,-0.0260860379785,0.0970920622349,,,,,,,,,,,,,,,,,,,,,,,,,,,,,,,,,,,,,,,,11.7249526978,12.2480430603,-1.0,-1.0,,,,,,,,,,,10480752,PX4FMU_V1,unknown_git_version,test,305419904.0,,,,,,,,,,,,,,
0.0183550193906,0.00530800269917,2.43324518204,-0.0284791737795,-0.00188311585225,-0.0302467644215,0.174607694149,0.00192093849182,-9.60052680969,0.0,0.0,2.52897810936,0.459390848875,0.174607694149,0.00192093849182,-9.60052680969,-0.0690292492509,-0.00343542406335,-0.00563811324537,-0.202956497669,-0.151096940041,0.38173276186,1012.75,4.16289710999,39.4500007629,0.0,0.0,0.0,0.0,0.675286412239,0.0,0.0,0.22170381248,0.0,0.0,0.0,0,3,1,,,,,,,,,,,,,,,,-0.00822835788131,-0.00320558971725,0.0189042389393,0.459390848875,0,2,1.0,0,1,0.0,-0.0,0.459390848875,0.0247524753213,0.99816006422,0.791979968548,-0.998161792755,-2.47105876656e+14,7,221.0,245.0,227.0,242.0,0.0,0.0,0.0,0.0,,,-0.0917742401361,-0.026541499421,0.0957814902067,,,,,,,,,,,,,,,,,,,,,,,,,,,,,,,,,,,,,,,,11.8003807068,12.2471065521,-1.0,-1.0,,,,,,,,,,,10502972,PX4FMU_V1,unknown_git_version,test,305419904.0,,,,,,,,,,,,,,
0.0174632575363,0.00516258226708,2.43254327774,-0.0365309007466,0.00805461872369,-0.0087476875633,0.182219967246,0.478563606739,-9.78787994385,0.0,0.0,2.52897810936,0.459390848875,0.182219967246,0.478563606739,-9.78787994385,-0.0260187964886,0.0370942465961,0.0348436385393,-0.184608876705,-0.154425874352,0.394194245338,1012.79998779,3.74653244019,39.4399986267,0.0,0.0,0.0,0.0,0.678951084614,0.0,0.0,0.221029058099,0.0,0.0,0.0,0,3,1,,,,,,,,,,,,,,,,-0.00660199858248,-0.00440294994041,0.0157841444016,0.459390848875,0,2,1.0,0,1,0.0,-0.0,0.459390848875,0.0247524753213,0.99816006422,0.789473712444,-0.996323525906,-2.47105876656e+14,7,222.0,245.0,226.0,243.0,0.0,0.0,0.0,0.0,,,-0.0873155072331,-0.0258142277598,0.0964799299836,,,,,,,,,,,,,,,,,,,,,,,,,,,,,,,,,,,,,,,,11.8255233765,12.2462463379,-1.0,-1.0,,,,,,,,,,,10524060,PX4FMU_V1,unknown_git_version,test,305419904.0,,,,,,,,,,,,,,
0.0172947440296,0.00545657565817,2.43321704865,-5.48565321878e-06,0.00584357604384,0.00627397652715,0.0512304902077,0.209108442068,-10.1662597656,0.0,0.0,2.52897810936,0.459390848875,0.0512304902077,0.209108442068,-10.1662597656,-0.00511540006846,-0.0271975845098,0.0282389819622,-0.185526266694,-0.146935760975,0.382622867823,1012.77996826,3.91307640076,39.4399986267,0.0,0.0,0.0,0.0,0.685712993145,0.0,0.0,0.223108172417,0.0,0.0,0.0,0,3,1,,,,,,,,,,,,,,,,-0.0112407589331,-0.00430661579594,0.0134301315993,0.459390848875,0,2,1.0,0,1,0.0,-0.0,0.459390848875,0.0247524753213,0.99816006422,0.789473712444,-0.996323525906,-2.47105876656e+14,7,221.0,243.0,231.0,240.0,0.0,0.0,0.0,0.0,,,-0.0864728614688,-0.0272842403501,0.095808185637,,,,,,,,,,,,,,,,,,,,,,,,,,,,,,,,,,,,,,,,11.8255233765,12.2453966141,-1.0,-1.0,,,,,,,,,,,10546843,PX4FMU_V1,unknown_git_version,test,305419904.0,,,,,,,,,,,,,,
0.0174228996038,0.00511299679056,2.43315529823,0.00228790682741,-0.0213462170213,-0.0171025972813,0.0897501558065,0.450390994549,-10.1248636246,0.0,0.0,2.52897810936,0.459390848875,0.0897501558065,0.450390994549,-10.1248636246,-0.011403253302,-0.0217677466571,0.0115937367082,-0.191947922111,-0.141942352057,0.380842655897,1012.7699585,3.99634933472,39.4399986267,0.0,0.0,0.0,0.0,0.688229382038,0.0,0.0,0.22404243052,0.0,0.0,0.0,0,3,1,,,,,,,,,,,,,,,,-0.0116222146899,-0.000548608659301,0.0169454868883,0.459390848875,0,2,1.0,0,1,0.0,-0.0,0.459390848875,0.0247524753213,0.99816006422,0.789473712444,-0.998161792755,-2.47105876656e+14,7,221.0,247.0,227.0,241.0,0.0,0.0,0.0,0.0,,,-0.0871137455106,-0.0255662836134,0.095867305994,,,,,,,,,,,,,,,,,,,,,,,,,,,,,,,,,,,,,,,,11.8171424866,12.2449684143,-1.0,-1.0,,,,,,,,,,,10567404,PX4FMU_V1,unknown_git_version,test,305419904.0,,,,,,,,,,,,,,
0.0176114458591,0.00516196759418,2.43358564377,0.000190278311493,0.0184164457023,-0.035213522613,0.295442402363,0.448122441769,-9.86379814148,0.0,0.0,2.52897810936,0.459390848875,0.295442402363,0.448122441769,-9.86379814148,-0.0253092907369,0.0250149965286,0.00232321117073,-0.202039122581,-0.151096940041,0.38173276186,1012.82995605,3.49672174454,39.4099998474,0.0,0.0,0.0,0.0,0.694940626621,0.0,0.0,0.225898653269,0.0,0.0,0.0,0,3,1,,,,,,,,,,,,,,,,-0.0114720771089,-0.0057495906949,0.0195977259427,0.459390848875,0,2,1.0,0,1,0.0,-0.0,0.459390848875,0.0247524753213,1.0,0.789473712444,-0.998161792755,-2.47105876656e+14,7,219.0,245.0,228.0,242.0,0.0,0.0,0.0,0.0,,,-0.0880564674735,-0.0258111767471,0.0954379737377,,,,,,,,,,,,,,,,,,,,,,,,,,,,,,,,,,,,,,,,11.8171424866,12.2441129684,-1.0,-1.0,,,,,,,,,,,10588646,PX4FMU_V1,unknown_git_version,test,305419904.0,,,,,,,,,,,,,,
0.0173662919551,0.0056278235279,2.43328022957,-0.008878425695,0.0181866548955,-0.0224141702056,-0.0514049269259,0.175579100847,-9.76714801788,0.0,0.0,2.52897810936,0.479695439339,-0.0514049269259,0.175579100847,-9.76714801788,-4.99142333865e-05,0.00421536853537,0.0142180966213,-0.190113157034,-0.158587053418,0.392414063215,1012.75994873,4.07962274551,39.4099998474,0.0,0.0,0.0,0.0,0.701313138008,0.0,0.0,0.226896375418,0.0,0.0,0.0,0,3,1,,,,,,,,,,,,,,,,-0.0101337758824,-0.00602253433317,0.0177241414785,0.479695439339,0,2,1.0,0,1,0.0,-0.0,0.479695439339,0.0247524753213,1.0,0.789473712444,-0.998161792755,-2.47105876656e+14,7,229.0,255.0,238.0,254.0,0.0,0.0,0.0,0.0,,,-0.0868305489421,-0.0281405355781,0.0957467705011,,,,,,,,,,,,,,,,,,,,,,,,,,,,,,,,,,,,,,,,11.7249526978,12.2431669235,-1.0,-1.0,,,,,,,,,,,10610950,PX4FMU_V1,unknown_git_version,test,305419904.0,,,,,,,,,,,,,,
0.0170306488872,0.00572342099622,2.43360972404,-0.0208180788904,-0.0114415818825,-0.0208771694452,-0.198842465878,0.564392626286,-10.4069042206,0.0,0.0,2.52897810936,0.486040621996,-0.198842465878,0.564392626286,-10.4069042206,-0.017304347828,-0.0462017208338,-0.0198772102594,-0.212130278349,-0.152761399746,0.402205199003,1012.82995605,3.49672174454,39.3999977112,0.0,0.0,0.0,0.0,0.707248389721,0.0,0.0,0.227899372578,0.0,0.0,0.0,0,3,1,,,,,,,,,,,,,,,,-0.00836344994605,-0.00223299791105,0.0174441374838,0.486040621996,0,2,1.0,0,1,0.0,-0.0,0.486040621996,0.0272277221084,0.99816006422,0.789473712444,-0.998161792755,-2.47105876656e+14,7,236.0,258.0,241.0,255.0,0.0,0.0,0.0,0.0,,,-0.0851523131132,-0.0286184884608,0.0954170823097,,,,,,,,,,,,,,,,,,,,,,,,,,,,,,,,,,,,,,,,11.7249526978,12.2421140671,-1.0,-1.0,,,,,,,,,,,10631871,PX4FMU_V1,unknown_git_version,test,305419904.0,,,,,,,,,,,,,,
0.0166000556201,0.00513645121828,2.43339920044,-0.0355296656489,-0.022231053561,-0.0573192425072,-0.232282787561,0.111478969455,-9.95553302765,0.0,0.0,2.52897810936,0.488578677177,-0.232282787561,0.111478969455,-9.95553302765,-0.0460107885301,0.000179285183549,-0.041960246861,-0.191030547023,-0.146935760975,0.396864563227,1012.75,4.16289710999,39.3999977112,0.0,0.0,0.0,0.0,0.710905373096,0.0,0.0,0.228190734982,0.0,0.0,0.0,0,3,1,,,,,,,,,,,,,,,,-0.0061710816808,-0.000448808568763,0.022941108793,0.488578677177,0,2,1.0,0,1,0.0,-0.0,0.488578677177,0.0247524753213,1.0,0.789473712444,-0.998161792755,-2.47105876656e+14,7,235.0,263.0,238.0,259.0,0.0,0.0,0.0,0.0,,,-0.0829995274544,-0.0256834272295,0.0956214815378,,,,,,,,,,,,,,,,,,,,,,,,,,,,,,,,,,,,,,,,11.7500953674,12.2416219711,-1.0,-1.0,,,,,,,,,,,10653087,PX4FMU_V1,unknown_git_version,test,305419904.0,,,,,,,,,,,,,,
