ATT_Roll,ATT_Pitch,ATT_Yaw,ATT_RollRate,ATT_PitchRate,ATT_YawRate,ATT_GX,ATT_GY,ATT_GZ,ATSP_RollSP,ATSP_PitchSP,ATSP_YawSP,ATSP_ThrustSP,IMU_AccX,IMU_AccY,IMU_AccZ,IMU_GyroX,IMU_GyroY,IMU_GyroZ,IMU_MagX,IMU_MagY,IMU_MagZ,SENS_BaroPres,SENS_BaroAlt,SENS_BaroTemp,SENS_DiffPres,SENS_DiffPresFilt,LPOS_X,LPOS_Y,LPOS_Z,LPOS_Dist,LPOS_DistR,LPOS_VX,LPOS_VY,LPOS_VZ,LPOS_RLat,LPOS_RLon,LPOS_RAlt,LPOS_PFlg,LPOS_LFlg,LPOS_GFlg,LPOS_EPH,LPOS_EPV,LPSP_X,LPSP_Y,LPSP_Z,LPSP_Yaw,GPS_GPSTime,GPS_Fix,GPS_EPH,GPS_EPV,GPS_Lat,GPS_Lon,GPS_Alt,GPS_VelN,GPS_VelE,GPS_VelD,GPS_Cog,GPS_nSat,GPS_SNR,GPS_N,GPS_J,ATTC_Roll,ATTC_Pitch,ATTC_Yaw,ATTC_Thrust,STAT_MainState,STAT_ArmState,STAT_FailsafeState,STAT_BatRem,STAT_BatWarn,STAT_Landed,RC_Ch0,RC_Ch1,RC_Ch2,RC_Ch3,RC_Ch4,RC_Ch5,RC_Ch6,RC_Ch7,RC_Count,RC_SignalLost,OUT0_Out0,OUT0_Out1,OUT0_Out2,OUT0_Out3,OUT0_Out4,OUT0_Out5,OUT0_Out6,OUT0_Out7,AIRS_IndSpeed,AIRS_TrueSpeed,AIRS_AirTemp,ARSP_RollRateSP,ARSP_PitchRateSP,ARSP_YawRateSP,FLOW_RawX,FLOW_RawY,FLOW_CompX,FLOW_CompY,FLOW_Dist,FLOW_Q,FLOW_SensID,GPOS_Lat,GPOS_Lon,GPOS_Alt,GPOS_VelN,GPOS_VelE,GPOS_VelD,GPOS_EPH,GPOS_EPV,GPSP_NavState,GPSP_Lat,GPSP_Lon,GPSP_Alt,GPSP_Yaw,GPSP_Type,GPSP_LoitR,GPSP_LoitDir,GPSP_PitMin,ESC_count,ESC_nESC,ESC_Conn,ESC_N,ESC_Ver,ESC_Adr,ESC_Volt,ESC_Amp,ESC_RPM,ESC_Temp,ESC_SetP,ESC_SetPRAW,GVSP_VX,GVSP_VY,GVSP_VZ,BATT_V,BATT_VFilt,BATT_C,BATT_Discharged,DIST_Bottom,DIST_BottomRate,DIST_Flags,TELE_RSSI,TELE_RemRSSI,TELE_Noise,TELE_RemNoise,TELE_RXErr,TELE_Fixed,TELE_TXBuf,ESTM_s0,ESTM_s1,ESTM_s2,ESTM_s3,ESTM_s4,ESTM_s5,ESTM_s6,ESTM_s7,ESTM_s8,ESTM_s9,ESTM_nStat,ESTM_statNaN,ESTM_covNaN,ESTM_kGainNaN,PWR_Periph5V,PWR_Servo5V,PWR_RSSI,PWR_UsbOk,PWR_BrickOk,PWR_ServoOk,PWR_PeriphOC,PWR_HipwrOC,VICN_X,VICN_Y,VICN_Z,VICN_Roll,VICN_Pitch,VICN_Yaw,GS0A_s0,GS0A_s1,GS0A_s2,GS0A_s3,GS0A_s4,GS0A_s5,GS0A_s6,GS0A_s7,GS0A_s8,GS0A_s9,GS0A_s10,GS0A_s11,GS0A_s12,GS0A_s13,GS0A_s14,GS0A_s15,GS0B_s0,GS0B_s1,GS0B_s2,GS0B_s3,GS0B_s4,GS0B_s5,GS0B_s6,GS0B_s7,GS0B_s8,GS0B_s9,GS0B_s10,GS0B_s11,GS0B_s12,GS0B_s13,GS0B_s14,GS0B_s15,GS1A_s0,GS1A_s1,GS1A_s2,GS1A_s3,GS1A_s4,GS1A_s5,GS1A_s6,GS1A_s7,GS1A_s8,GS1A_s9,GS1A_s10,GS1A_s11,GS1A_s12,GS1A_s13,GS1A_s14,GS1A_s15,GS1B_s0,GS1B_s1,GS1B_s2,GS1B_s3,GS1B_s4,GS1B_s5,GS1B_s6,GS1B_s7,GS1B_s8,GS1B_s9,GS1B_s10,GS1B_s11,GS1B_s12,GS1B_s13,GS1B_s14,GS1B_s15,TIME_StartTime,VER_Arch,VER_FwGit,PARM_Name,PARM_Value
,,,,,,,,,,,,,,,,,,,,,,,,,,,,,,,,,,,,,,,,,,,,,,,,,,,,,,,,,,,,,,,,,,,,,,,,,,,,,,,,,,,,,,,,,,,,,,,,,,,,,,,,,,,,,,,,,,,,,,,,,,,,,,,,,,,,,,,,,,,,,,,,,,,,,,,,,,,,,,,,,,,,,,,,,,,,,,,,,,,,,,,,,,,,,,,,,,,,,,,,,,,,,,,,,,,,,,,,,,,,,,,,,,,,,,,,,,,,,,,,,,PX4FMU_V1,251760679a4bed86fdb10746062fde2cc23e460f,test,305419904.0
-0.00666642654687,-0.0136891389266,-1.52814590931,0.000265767041128,-0.0274930614978,0.00467545352876,-1.13380408287,-0.488105237484,-9.81697273254,0.0,0.0,-1.51060402393,0.0,-0.426067531109,-0.628999948502,-9.57592010498,0.00527888257056,-0.0488517396152,0.01052756235,0.00253669242375,0.16931347549,0.355029582977,1018.98999023,-47.671295166,36.3299980164,0.0,0.0,4.52570676804,4.38751649857,-3.56731987,0.264695763588,-0.0381916128099,0.138703480363,-0.111945971847,-0.0307176709175,0.0,0.0,0.0,10,1,0,20.058795929,7.98865270615,,,,,,,,,,,,,,,,,,,,0.00429835682735,0.0124721005559,0.00193682464305,0.0,0,2,0,0.819266617298,0,1,0.0,-0.0,0.0,0.0272277221084,0.99816006422,0.776942372322,-0.996323525906,0.0,7,0,10.0,10.0,10.0,10.0,0.0,0.0,0.0,0.0,,,,0.0333300493658,0.0684461817145,0.0175876170397,0,0,0.0,0.0,0.300000011921,0,77,,,,,,,,,,,,,,,,,,,,,,,,,,,,,,,,,11.4064760208,11.4074373245,-1.0,-1.0,,,,,,,,,,,,,,,,,,,,,,,,,,,,,,,,,,,,,,,,,,,,,,,,,,,,,,,,,,,,,,,,,,,,,,,,,,,,,,,,,,,,,,,,,,,,,,,,,,,,,,,1401771525,PX4FMU_V1,251760679a4bed86fdb10746062fde2cc23e460f,test,305419904.0
-0.00684933364391,-0.0131631167606,-1.52845418453,0.0247814767063,0.033784981817,-0.0217783413827,0.916487753391,0.0289897583425,-9.24271392822,0.0,0.0,-1.51060402393,0.0,0.916487753391,0.0289897583425,-9.24271392822,0.0589322149754,0.022720662877,-0.0384282059968,0.0254711974412,0.116882666945,0.364820748568,1018.9699707,-47.505569458,36.3299980164,0.0,0.0,4.52570676804,4.38751649857,-3.56741738319,0.264695763588,-0.0381916128099,0.138703480363,-0.111945971847,-0.036223705858,0.0,0.0,0.0,10,1,0,20.058795929,7.98871231079,,,,,,,,,,,,,,,,,,,,0.00123021868058,0.00416404660791,0.00595104368404,0.0,0,2,0,0.805264770985,0,1,0.0,-0.0,0.0,0.0272277221084,0.99816006422,0.776942372322,-0.996323525906,0.0,7,0,10.0,10.0,10.0,10.0,0.0,0.0,0.0,0.0,,,,0.034244697541,0.0658161118627,0.0178952813148,-4,15,0.0369294434786,-0.113554246724,0.300000011921,43,77,,,,,,,,,,,,,,,,,,,,,,,,,,,,,,,,,11.4064760208,11.4074363708,-1.0,-1.0,,,,,,,,,,,,,,,,,,,,,,,,,,,,,,,,,,,,,,,,,,,,,,,,,,,,,,,,,,,,,,,,,,,,,,,,,,,,,,,,,,,,,,,,,,,,,,,,,,,,,,,1401794078,PX4FMU_V1,251760679a4bed86fdb10746062fde2cc23e460f,test,305419904.0
-0.00679019000381,-0.0136665012687,-1.53124451637,-0.0402344577014,-0.0277275945991,0.0122603345662,-1.21557950974,0.643827557564,-10.285785675,0.0,0.0,-1.51060402393,0.0,-1.21557950974,0.643827557564,-10.285785675,-0.07032340765,-0.0187198389322,0.0013453993015,-0.017645675689,0.132695138454,0.363930642605,1018.9699707,-47.505569458,36.3299980164,0.0,0.0,4.52570676804,4.38751649857,-3.56926369667,0.264695763588,-0.0381916128099,0.138703480363,-0.111945971847,-0.0318088270724,0.0,0.0,0.0,10,1,0,20.058795929,7.98883342743,,,,,,,,,,,,,,,,,,,,0.00964382849634,0.0124878827482,0.00126397341955,0.0,0,2,0,0.805264770985,0,1,0.0,-0.0,0.0,0.0272277221084,0.99816006422,0.779448628426,-0.998161792755,0.0,7,0,10.0,10.0,10.0,10.0,0.0,0.0,0.0,0.0,,,,0.0339488461614,0.0683330446482,0.0206868238747,0,0,0.0,0.0,0.300000011921,0,77,,,,,,,,,,,,,,,,,,,,,,,,,,,,,,,,,11.4064760208,11.4074344635,-1.0,-1.0,,,,,,,,,,,,,,,,,,,,,,,,,,,,,,,,,,,,,,,,,,,,,,,,,,,,,,,,,,,,,,,,,,,,,,,,,,,,,,,,,,,,,,,,,,,,,,,,,,,,,,,1401815311,PX4FMU_V1,251760679a4bed86fdb10746062fde2cc23e460f,test,305419904.0
-0.00634449347854,-0.0130289159715,-1.52699887753,0.0445734150708,0.0328380465508,0.00752090895548,0.186682373285,-0.972246050835,-9.83216667175,0.0,0.0,-1.51060402393,0.0,0.186682373285,-0.972246050835,-9.83216667175,0.0351907722652,0.0245570745319,0.021068494767,0.00804098043591,0.112721502781,0.355029582977,1018.97998047,-47.588432312,36.3299980164,0.0,0.0,4.52570676804,4.38751649857,-3.56929063797,0.264695763588,-0.0381916128099,0.138703480363,-0.111945971847,-0.0320114828646,0.0,0.0,0.0,10,1,0,20.058795929,7.98895359039,,,,,,,,,,,,,,,,,,,,-0.00167085754219,0.00419990485534,0.00133729970548,0.0,0,2,0,0.805264770985,0,1,0.0,-0.0,0.0,0.0272277221084,0.99816006422,0.779448628426,-0.998161792755,0.0,7,0,10.0,10.0,10.0,10.0,0.0,0.0,0.0,0.0,,,,0.0317206643522,0.065145008266,0.0164362397045,18,11,-0.165030032396,-0.0991743057966,0.300000011921,0,77,,,,,,,,,,,,,,,,,,,,,,,,,,,,,,,,,11.4148569107,11.4074411392,-1.0,-1.0,,,,,,,,,,,,,,,,,,,,,,,,,,,,,,,,,,,,,,,,,,,,,,,,,,,,,,,,,,,,,,,,,,,,,,,,,,,,,,,,,,,,,,,,,,,,,,,,,,,,,,,1401836891,PX4FMU_V1,251760679a4bed86fdb10746062fde2cc23e460f,test,305419904.0
-0.0068869185634,-0.0134783554822,-1.52538526058,-0.0455743409693,-0.0388699136674,-0.00425409618765,-0.534974336624,0.485304534435,-9.94675445557,0.0,0.0,-1.51060402393,0.0,-0.534974336624,0.485304534435,-9.94675445557,-0.0446918718517,-0.0430032387376,-0.0105111300945,-0.00205021142028,0.112721502781,0.376392126083,1018.94995117,-47.33984375,36.3299980164,0.0,0.0,4.52570676804,4.38751649857,-3.57247591019,0.264695763588,-0.0381916128099,0.138703480363,-0.111945971847,-0.0347727574408,0.0,0.0,0.0,10,1,0,20.058795929,7.98907423019,,,,,,,,,,,,,,,,,,,,0.0104008903727,0.0138140898198,0.00286225462332,0.0,0,2,0,0.805264770985,0,1,0.0,-0.0,0.0,0.0272277221084,0.99816006422,0.776942372322,-0.998161792755,0.0,7,0,10.0,10.0,10.0,10.0,0.0,0.0,0.0,0.0,,,,0.0344325117767,0.0673923194408,0.0148276006803,0,0,0.0,0.0,0.300000011921,0,77,,,,,,,,,,,,,,,,,,,,,,,,,,,,,,,,,11.3980951309,11.4074306488,-1.0,-1.0,,,,,,,,,,,,,,,,,,,,,,,,,,,,,,,,,,,,,,,,,,,,,,,,,,,,,,,,,,,,,,,,,,,,,,,,,,,,,,,,,,,,,,,,,,,,,,,,,,,,,,,1401857656,PX4FMU_V1,251760679a4bed86fdb10746062fde2cc23e460f,test,305419904.0
-0.00662118662149,-0.0132389599457,-1.52813458443,0.0404432676733,0.0434501357377,-0.00780927576125,-0.0472144000232,-0.13072437048,-9.93142127991,0.0,0.0,-1.51060402393,0.0,-0.0472144000232,-0.13072437048,-9.93142127991,0.060314796865,0.0647752955556,-0.0151963056996,-0.01122400444,0.131862893701,0.375502020121,1019.00994873,-47.8370170593,36.3400001526,0.0,0.0,4.52570676804,4.38751649857,-3.57351064682,0.264695763588,-0.0381916128099,0.138703480363,-0.111945971847,-0.0349102430046,0.0,0.0,0.0,10,1,0,20.058795929,7.98913431168,,,,,,,,,,,,,,,,,,,,-0.000954104412813,0.00295687047765,0.00380755681545,0.0,0,2,0,0.804924666882,0,1,0.0,-0.0,0.0,0.0272277221084,1.0,0.776942372322,-0.998161792755,0.0,7,0,10.0,10.0,10.0,10.0,0.0,0.0,0.0,0.0,,,,0.0331040024757,0.066195294261,0.0175744351,0,0,0.0,0.0,0.300000011921,0,77,,,,,,,,,,,,,,,,,,,,,,,,,,,,,,,,,11.3645715714,11.4073877335,-1.0,-1.0,,,,,,,,,,,,,,,,,,,,,,,,,,,,,,,,,,,,,,,,,,,,,,,,,,,,,,,,,,,,,,,,,,,,,,,,,,,,,,,,,,,,,,,,,,,,,,,,,,,,,,,1401879640,PX4FMU_V1,251760679a4bed86fdb10746062fde2cc23e460f,test,305419904.0
-0.00651026563719,-0.013138554059,-1.52546703815,-0.0468708723783,-0.0433371849358,0.00124771962874,-0.501174330711,0.0965761840343,-10.0131473541,0.0,0.0,-1.51060402393,0.0,-0.501174330711,0.0965761840343,-10.0131473541,-0.0832703635097,-0.0698965489864,0.00780262146145,0.0584968961775,0.162655591965,0.34612852335,1018.95996094,-47.422706604,36.3400001526,0.0,0.0,4.52570676804,4.38751649857,-3.57218956947,0.264695763588,-0.0381916128099,0.138703480363,-0.111945971847,-0.0315444022417,0.0,0.0,0.0,10,1,0,20.058795929,7.98925495148,,,,,,,,,,,,,,,,,,,,0.0103246420622,0.0141739584506,0.00204870547168,0.0,0,2,0,0.804924666882,0,1,0.0,-0.0,0.0,0.0272277221084,0.99816006422,0.776942372322,-0.998161792755,0.0,7,0,10.0,10.0,10.0,10.0,0.0,0.0,0.0,0.0,,,,0.0325494594872,0.0656932666898,0.0149057554081,0,0,0.0,0.0,0.300000011921,0,77,,,,,,,,,,,,,,,,,,,,,,,,,,,,,,,,,11.3226661682,11.4072599411,-1.0,-1.0,,,,,,,,,,,,,,,,,,,,,,,,,,,,,,,,,,,,,,,,,,,,,,,,,,,,,,,,,,,,,,,,,,,,,,,,,,,,,,,,,,,,,,,,,,,,,,,,,,,,,,,1401901400,PX4FMU_V1,251760679a4bed86fdb10746062fde2cc23e460f,test,305419904.0
-0.0069073564373,-0.0135077554733,-1.52261519432,0.0316579528153,0.0265745949,0.00243319990113,-0.383977204561,0.138819232583,-9.80920124054,0.0,0.0,-1.51060402393,0.0,-0.383977204561,0.138819232583,-9.80920124054,0.0811447799206,0.069235727191,0.00409804238006,0.0273059643805,0.177635833621,0.356809794903,1019.0,-47.75415802,36.3299980164,0.0,0.0,4.52570676804,4.38751649857,-3.57532978058,0.264695763588,-0.0381916128099,0.138703480363,-0.111945971847,-0.0358650274575,0.0,0.0,0.0,10,1,0,20.058795929,7.98937559128,,,,,,,,,,,,,,,,,,,,0.000373974238755,0.00532541191205,0.00144369679037,0.0,0,2,0,0.804924666882,0,1,0.0,-0.0,0.0,0.0272277221084,1.0,0.776942372322,-0.998161792755,0.0,7,0,10.0,10.0,10.0,10.0,0.0,0.0,0.0,0.0,,,,0.0345346778631,0.0675393044949,0.0120578454807,0,0,0.0,0.0,0.300000011921,0,77,,,,,,,,,,,,,,,,,,,,,,,,,,,,,,,,,11.3226661682,11.4070825577,-1.0,-1.0,,,,,,,,,,,,,,,,,,,,,,,,,,,,,,,,,,,,,,,,,,,,,,,,,,,,,,,,,,,,,,,,,,,,,,,,,,,,,,,,,,,,,,,,,,,,,,,,,,,,,,,1401922132,PX4FMU_V1,251760679a4bed86fdb10746062fde2cc23e460f,test,305419904.0
-0.0059626842849,-0.0125121632591,-1.52018272877,0.017663680017,0.0210735499859,-0.00261669326574,0.617894887924,-0.477160304785,-9.47489738464,0.0,0.0,-1.51060402393,0.0,0.617894887924,-0.477160304785,-9.47489738464,-0.0230790730566,-0.021372564137,0.00607557222247,0.0190495401621,0.189287111163,0.355919659138,1018.98999023,-47.671295166,36.3299980164,0.0,0.0,4.52570676804,4.38751649857,-3.57497954369,0.264695763588,-0.0381916128099,0.138703480363,-0.111945971847,-0.0326129384339,0.0,0.0,0.0,10,1,0,20.058795929,7.9894952774,,,,,,,,,,,,,,,,,,,,0.00157926371321,0.0053933924064,0.0018349038437,0.0,0,2,0,0.804924666882,0,1,0.0,-0.0,0.0,0.0272277221084,1.0,0.776942372322,-0.998161792755,0.0,7,0,10.0,10.0,10.0,10.0,0.0,0.0,0.0,0.0,,,,0.0298118628561,0.0625611841679,0.00961599871516,0,0,0.0,0.0,0.300000011921,0,77,,,,,,,,,,,,,,,,,,,,,,,,,,,,,,,,,11.3226661682,11.4069137573,-1.0,-1.0,,,,,,,,,,,,,,,,,,,,,,,,,,,,,,,,,,,,,,,,,,,,,,,,,,,,,,,,,,,,,,,,,,,,,,,,,,,,,,,,,,,,,,,,,,,,,,,,,,,,,,,1401943509,PX4FMU_V1,251760679a4bed86fdb10746062fde2cc23e460f,test,305419904.0
-0.0071187634021,-0.0136461546645,-1.52230620384,-0.0287290997803,-0.0250706113875,-0.00367730623111,-0.831778764725,0.921316623688,-9.79283714294,0.0,0.0,-1.51060402393,0.0,-0.831778764725,0.921316623688,-9.79283714294,0.0198715291917,0.0185424089432,0.00405144877732,0.00253669242375,0.182629227638,0.359480112791,1018.94995117,-47.33984375,36.3299980164,0.0,0.0,4.52570676804,4.38751649857,-3.57909727097,0.264695763588,-0.0381916128099,0.138703480363,-0.111945971847,-0.0366105213761,0.0,0.0,0.0,10,1,0,20.058795929,7.98961544037,,,,,,,,,,,,,,,,,,,,0.00836169254035,0.0121292555705,0.00231420830823,0.0,0,2,0,0.804924666882,0,1,0.0,-0.0,0.0,0.0272277221084,0.99816006422,0.776942372322,-0.998161792755,0.0,7,0,10.0,10.0,10.0,10.0,0.0,0.0,0.0,0.0,,,,0.035591609776,0.0682313516736,0.011750748381,-1,-20,0.00972993578762,0.184529751539,0.300000011921,0,77,,,,,,,,,,,,,,,,,,,,,,,,,,,,,,,,,11.3226661682,11.4067373276,-1.0,-1.0,,,,,,,,,,,,,,,,,,,,,,,,,,,,,,,,,,,,,,,,,,,,,,,,,,,,,,,,,,,,,,,,,,,,,,,,,,,,,,,,,,,,,,,,,,,,,,,,,,,,,,,1401965678,PX4FMU_V1,251760679a4bed86fdb10746062fde2cc23e460f,test,305419904.0
-0.00606460357085,-0.0126460408792,-1.5205539465,0.0555366687477,0.0553114190698,-0.0168093778193,0.715558290482,-0.627500653267,-9.68524456024,0.0,0.0,-1.51060402393,0.0,0.715558290482,-0.627500653267,-9.68524456024,0.0392285808921,0.042072147131,-0.0271597243845,0.0355623885989,0.101902455091,0.371051490307,1018.98999023,-47.671295166,36.3400001526,0.0,0.0,4.52570676804,4.38751649857,-3.5781853199,0.264695763588,-0.0381916128099,0.138703480363,-0.111945971847,-0.037443023175,0.0,0.0,0.0,10,1,0,20.058795929,7.98967504501,,,,,,,,,,,,,,,,,,,,-0.00327798421495,0.00102949305438,0.00401964876801,0.0,0,2,0,0.804924666882,0,1,0.0,-0.0,0.0,0.0272277221084,0.99816006422,0.776942372322,-0.996323525906,0.0,7,0,10.0,10.0,10.0,10.0,0.0,0.0,0.0,0.0,,,,0.0303214043379,0.0632305964828,0.00998827721924,4,5,-0.0373802892864,-0.0479460023344,0.300000011921,0,77,,,,,,,,,,,,,,,,,,,,,,,,,,,,,,,,,11.3310470581,11.4066619873,-1.0,-1.0,,,,,,,,,,,,,,,,,,,,,,,,,,,,,,,,,,,,,,,,,,,,,,,,,,,,,,,,,,,,,,,,,,,,,,,,,,,,,,,,,,,,,,,,,,,,,,,,,,,,,,,1401986914,PX4FMU_V1,251760679a4bed86fdb10746062fde2cc23e460f,test,305419904.0
-0.00647485768422,-0.0130567559972,-1.52135074139,-0.0598438158631,-0.0569079741836,0.000833389349282,-0.734730601311,0.263655781746,-10.2299280167,0.0,0.0,-1.51060402393,0.0,-0.734730601311,0.263655781746,-10.2299280167,-0.0854338333011,-0.0794963240623,-0.0109085496515,-0.000215443928028,0.156829938293,0.373721808195,1018.97998047,-47.588432312,36.3400001526,0.0,0.0,4.52570676804,4.38751649857,-3.57828640938,0.264695763588,-0.0381916128099,0.138703480363,-0.111945971847,-0.0330367386341,0.0,0.0,0.0,10,1,0,20.058795929,7.98979616165,,,,,,,,,,,,,,,,,,,,0.0129168629646,0.016453742981,0.0026727092918,0.0,0,2,0,0.804924666882,0,1,0.0,-0.0,0.0,0.0272277221084,0.99816006422,0.779448628426,-0.998161792755,0.0,7,0,10.0,10.0,10.0,10.0,0.0,0.0,0.0,0.0,,,,0.033881187439,0.0666803866625,0.0110141364858,0,0,0.0,0.0,0.300000011921,0,77,,,,,,,,,,,,,,,,,,,,,,,,,,,,,,,,,11.3310470581,11.4065027237,-1.0,-1.0,,,,,,,,,,,,,,,,,,,,,,,,,,,,,,,,,,,,,,,,,,,,,,,,,,,,,,,,,,,,,,,,,,,,,,,,,,,,,,,,,,,,,,,,,,,,,,,,,,,,,,,1402008114,PX4FMU_V1,251760679a4bed86fdb10746062fde2cc23e460f,test,305419904.0
-0.00647485768422,-0.0130567559972,-1.52135074139,-0.0598438158631,-0.0569079741836,0.000833389349282,-0.734730601311,0.263655781746,-10.2299280167,0.0,0.0,-1.51060402393,0.0,0.0839244425297,-0.167364522815,-9.85215854645,0.0780825167894,0.0792903155088,-0.00957829318941,0.0355623885989,0.128533959389,0.374611914158,1019.00994873,-47.8370170593,36.3400001526,0.0,0.0,4.52570676804,4.38751649857,-3.57828640938,0.264695763588,-0.0381916128099,0.138703480363,-0.111945971847,-0.0330367386341,0.0,0.0,0.0,10,1,0,20.058795929,7.98979616165,,,,,,,,,,,,,,,,,,,,0.0129168629646,0.016453742981,0.0026727092918,0.0,0,2,0,0.804924666882,0,1,0.0,-0.0,0.0,0.0272277221084,0.99816006422,0.779448628426,-0.998161792755,0.0,7,0,10.0,10.0,10.0,10.0,0.0,0.0,0.0,0.0,,,,0.033881187439,0.0666803866625,0.0110141364858,0,0,0.0,0.0,0.300000011921,0,77,,,,,,,,,,,,,,,,,,,,,,,,,,,,,,,,,11.3310470581,11.4065027237,-1.0,-1.0,,,,,,,,,,,,,,,,,,,,,,,,,,,,,,,,,,,,,,,,,,,,,,,,,,,,,,,,,,,,,,,,,,,,,,,,,,,,,,,,,,,,,,,,,,,,,,,,,,,,,,,1402032145,PX4FMU_V1,251760679a4bed86fdb10746062fde2cc23e460f,test,305419904.0
-0.00640126736835,-0.0129282064736,-1.51861917973,0.0517969019711,0.0497293286026,-0.00834874808788,0.259920954704,-0.547692775726,-9.79444885254,0.0,0.0,-1.51060402393,0.0,0.259920954704,-0.547692775726,-9.79444885254,0.0600843727589,0.0586903505027,-0.0202784091234,0.0300581008196,0.153501003981,0.345238417387,1018.9699707,-47.505569458,36.3299980164,0.0,0.0,4.52570676804,4.38751649857,-3.5762629509,0.264695763588,-0.0381916128099,0.138703480363,-0.111945971847,-0.034553527832,0.0,0.0,0.0,10,1,0,20.058795929,7.99087619781,,,,,,,,,,,,,,,,,,,,-0.00257300469093,0.00193857902195,0.00246078823693,0.0,0,2,0,0.804924666882,0,1,0.0,-0.0,0.0,0.0272277221084,0.99816006422,0.779448628426,-0.998161792755,0.0,7,0,10.0,10.0,10.0,10.0,0.0,0.0,0.0,0.0,,,,0.03200455755,0.0646414756775,0.00805650558323,0,7,-0.00252740015276,-0.0662381574512,0.300000011921,0,77,,,,,,,,,,,,,,,,,,,,,,,,,,,,,,,,,11.3310470581,11.4050827026,-1.0,-1.0,,,,,,,,,,,,,,,,,,,,,,,,,,,,,,,,,,,,,,,,,,,,,,,,,,,,,,,,,,,,,,,,,,,,,,,,,,,,,,,,,,,,,,,,,,,,,,,,,,,,,,,1402226357,PX4FMU_V1,251760679a4bed86fdb10746062fde2cc23e460f,test,305419904.0
-0.00644900742918,-0.0129913184792,-1.52119600773,-0.041206818074,-0.0407688394189,0.000273162964731,-0.472358524799,0.188086807728,-10.2348136902,0.0,0.0,-1.51060402393,0.0,-0.472358524799,0.188086807728,-10.2348136902,-0.0735209286213,-0.0705225989223,0.006636464037,-0.02223258093,0.12603725493,0.363930642605,1018.98999023,-47.671295166,36.3299980164,0.0,0.0,4.52570676804,4.38751649857,-3.57604312897,0.264695763588,-0.0381916128099,0.138703480363,-0.111945971847,-0.0311080478132,0.0,0.0,0.0,10,1,0,20.058795929,7.99099636078,,,,,,,,,,,,,,,,,,,,0.00954850576818,0.01374436263,0.00155410880689,0.0,0,2,0,0.804924666882,0,1,0.0,-0.0,0.0,0.0272277221084,0.99816006422,0.776942372322,-0.998161792755,0.0,7,0,10.0,10.0,10.0,10.0,0.0,0.0,0.0,0.0,,,,0.0322432219982,0.0649570301175,0.0106338886544,0,0,0.0,0.0,0.300000011921,0,77,,,,,,,,,,,,,,,,,,,,,,,,,,,,,,,,,11.3310470581,11.4049339294,-1.0,-1.0,,,,,,,,,,,,,,,,,,,,,,,,,,,,,,,,,,,,,,,,,,,,,,,,,,,,,,,,,,,,,,,,,,,,,,,,,,,,,,,,,,,,,,,,,,,,,,,,,,,,,,,1402246879,PX4FMU_V1,251760679a4bed86fdb10746062fde2cc23e460f,test,305419904.0
-0.00683273142204,-0.0132924690843,-1.52101433277,0.021427469328,0.0236307531595,0.0013058707118,-0.0305619835854,0.263563752174,-9.87341880798,0.0,0.0,-1.51060402393,0.0,-0.0305619835854,0.263563752174,-9.87341880798,0.0640811398625,0.0657734796405,-0.0136773679405,0.0465709492564,0.14517866075,0.355919659138,1018.95996094,-47.422706604,36.3299980164,0.0,0.0,4.52570676804,4.38751649857,-3.57814693451,0.264695763588,-0.0381916128099,0.138703480363,-0.111945971847,-0.036438472569,0.0,0.0,0.0,10,1,0,20.058795929,7.99111652374,,,,,,,,,,,,,,,,,,,,0.00165544333868,0.0055681746453,0.0013724748278,0.0,0,2,0,0.804924666882,0,1,0.0,-0.0,0.0,0.0272277221084,0.99816006422,0.776942372322,-0.998161792755,0.0,7,0,10.0,10.0,10.0,10.0,0.0,0.0,0.0,0.0,,,,0.0341616496444,0.066462866962,0.0104557024315,0,0,0.0,0.0,0.300000011921,0,77,,,,,,,,,,,,,,,,,,,,,,,,,,,,,,,,,11.3226661682,11.4047784805,-1.0,-1.0,,,,,,,,,,,,,,,,,,,,,,,,,,,,,,,,,,,,,,,,,,,,,,,,,,,,,,,,,,,,,,,,,,,,,,,,,,,,,,,,,,,,,,,,,,,,,,,,,,,,,,,1402268359,PX4FMU_V1,251760679a4bed86fdb10746062fde2cc23e460f,test,305419904.0
-0.0063428003341,-0.0128834061325,-1.52108669281,-0.0273927263916,-0.0292300805449,-7.42422489566e-05,-0.22348895669,-0.0832141488791,-9.89768409729,0.0,0.0,-1.51060402393,0.0,-0.22348895669,-0.0832141488791,-9.89768409729,-0.0687764436007,-0.0673063844442,0.0135904550552,-0.0158109087497,0.136024072766,0.367491066456,1018.98999023,-47.671295166,36.3400001526,0.0,0.0,4.52570676804,4.38751649857,-3.57828044891,0.264695763588,-0.0381916128099,0.138703480363,-0.111945971847,-0.0336813218892,0.0,0.0,0.0,10,1,0,20.058795929,7.99123811722,,,,,,,,,,,,,,,,,,,,0.00768364639953,0.0121741797775,0.00158966064919,0.0,0,2,0,0.804924666882,0,1,0.0,-0.0,0.0,0.0272277221084,0.99816006422,0.779448628426,-0.998161792755,0.0,7,0,10.0,10.0,10.0,10.0,0.0,0.0,0.0,0.0,,,,0.0317122489214,0.0644174590707,0.0105234952644,0,0,0.0,0.0,0.300000011921,0,77,,,,,,,,,,,,,,,,,,,,,,,,,,,,,,,,,11.3226661682,11.4046230316,-1.0,-1.0,,,,,,,,,,,,,,,,,,,,,,,,,,,,,,,,,,,,,,,,,,,,,,,,,,,,,,,,,,,,,,,,,,,,,,,,,,,,,,,,,,,,,,,,,,,,,,,,,,,,,,,1402290582,PX4FMU_V1,251760679a4bed86fdb10746062fde2cc23e460f,test,305419904.0
-0.00689443107694,-0.0133651988581,-1.51991713047,0.00857622269541,0.0111076068133,0.00217804103158,-0.210363447666,0.412160605192,-9.9309387207,0.0,0.0,-1.51060402393,0.0,-0.210363447666,0.412160605192,-9.9309387207,0.0510337725282,0.0517293512821,-0.00456497259438,0.0419840477407,0.142681956291,0.362150430679,1018.94000244,-47.256980896,36.3400001526,0.0,0.0,4.52570676804,4.38751649857,-3.57915687561,0.264695763588,-0.0381916128099,0.138703480363,-0.111945971847,-0.0358701124787,0.0,0.0,0.0,10,1,0,20.058795929,7.99129724503,,,,,,,,,,,,,,,,,,,,0.00336620397866,0.00724345678464,0.00107718352228,0.0,0,2,0,0.803081512451,0,1,0.0,-0.0,0.0,0.0272277221084,0.99816006422,0.776942372322,-0.998161792755,0.0,7,0,10.0,10.0,10.0,10.0,0.0,0.0,0.0,0.0,,,,0.0344700999558,0.0668265074492,0.00935926474631,-1,17,0.0168750006706,-0.157628670335,0.300000011921,63,77,,,,,,,,,,,,,,,,,,,,,,,,,,,,,,,,,11.3310470581,11.4045495987,-1.0,-1.0,,,,,,,,,,,,,,,,,,,,,,,,,,,,,,,,,,,,,,,,,,,,,,,,,,,,,,,,,,,,,,,,,,,,,,,,,,,,,,,,,,,,,,,,,,,,,,,,,,,,,,,1402311428,PX4FMU_V1,251760679a4bed86fdb10746062fde2cc23e460f,test,305419904.0
-0.00617526844144,-0.0126880127937,-1.52023434639,0.00754062552005,0.00447169411927,-0.00996877811849,0.452089905739,-0.509513914585,-9.49161338806,0.0,0.0,-1.51060402393,0.0,0.452089905739,-0.509513914585,-9.49161338806,-0.0332232937217,-0.0387598015368,0.00115173729137,0.0318928696215,0.110224798322,0.377282261848,1019.03997803,-48.0855941772,36.3400001526,0.0,0.0,4.52570676804,4.38751649857,-3.58428287506,0.264695763588,-0.0381916128099,0.138703480363,-0.111945971847,-0.0376241356134,0.0,0.0,0.0,10,1,0,20.058795929,7.99141693115,,,,,,,,,,,,,,,,,,,,0.00303342822008,0.00766594009474,0.00294574280269,0.0,0,2,0,0.803081512451,0,1,0.0,-0.0,0.0,0.0272277221084,1.0,0.776942372322,-0.998161792755,0.0,7,0,10.0,10.0,10.0,10.0,0.0,0.0,0.0,0.0,,,,0.0308746881783,0.063440464437,0.00966950599104,-7,3,0.0657692328095,-0.0332505442202,0.300000011921,51,77,,,,,,,,,,,,,,,,,,,,,,,,,,,,,,,,,11.3310470581,11.4043941498,-1.0,-1.0,,,,,,,,,,,,,,,,,,,,,,,,,,,,,,,,,,,,,,,,,,,,,,,,,,,,,,,,,,,,,,,,,,,,,,,,,,,,,,,,,,,,,,,,,,,,,,,,,,,,,,,1402332661,PX4FMU_V1,251760679a4bed86fdb10746062fde2cc23e460f,test,305419904.0
-0.00696000363678,-0.0134633909911,-1.52014732361,0.000244249677053,0.00218186480924,0.00356729305349,-0.404246985912,0.488120734692,-9.90322399139,0.0,0.0,-1.51060402393,0.0,-0.404246985912,0.488120734692,-9.90322399139,0.0447005853057,0.0425048694015,-0.00126382592134,0.0208842940629,0.157662183046,0.359480112791,1019.0199585,-47.9198760986,36.3400001526,0.0,0.0,4.52570676804,4.38751649857,-3.58034992218,0.264695763588,-0.0381916128099,0.138703480363,-0.111945971847,-0.0364978499711,0.0,0.0,0.0,10,1,0,20.058795929,7.99153852463,,,,,,,,,,,,,,,,,,,,0.00449197599664,0.00846763141453,0.000903419277165,0.0,0,2,0,0.803081512451,0,1,0.0,-0.0,0.0,0.0272277221084,1.0,0.776942372322,-0.998161792755,0.0,7,0,10.0,10.0,10.0,10.0,0.0,0.0,0.0,0.0,,,,0.0347979106009,0.0673174932599,0.00959008838981,6,-17,-0.0555249638855,0.153689980507,0.300000011921,0,77,,,,,,,,,,,,,,,,,,,,,,,,,,,,,,,,,11.3310470581,11.4042472839,-1.0,-1.0,,,,,,,,,,,,,,,,,,,,,,,,,,,,,,,,,,,,,,,,,,,,,,,,,,,,,,,,,,,,,,,,,,,,,,,,,,,,,,,,,,,,,,,,,,,,,,,,,,,,,,,1402354445,PX4FMU_V1,251760679a4bed86fdb10746062fde2cc23e460f,test,305419904.0
-0.00623050611466,-0.0127524854615,-1.52214932442,0.0110251596197,0.00956974644214,-0.0182401221246,0.372943252325,-0.576164782047,-9.55941009521,0.0,0.0,-1.51060402393,0.0,0.372943252325,-0.576164782047,-9.55941009521,-0.027849920094,-0.0302108153701,-0.0208771415055,-0.0130587723106,0.16681677103,0.350579053164,1019.0,-47.75415802,36.3400001526,0.0,0.0,4.52570676804,4.38751649857,-3.57913208008,0.264695763588,-0.0381916128099,0.138703480363,-0.111945971847,-0.0337157733738,0.0,0.0,0.0,10,1,0,20.058795929,7.99165916443,,,,,,,,,,,,,,,,,,,,0.00261633866467,0.00704510137439,0.00447377795354,0.0,0,2,0,0.803081512451,0,1,0.0,-0.0,0.0,0.0272277221084,1.0,0.776942372322,-0.998161792755,0.0,7,0,10.0,10.0,10.0,10.0,0.0,0.0,0.0,0.0,,,,0.0311508420855,0.0637628361583,0.0115850623697,6,-16,-0.0546850524843,0.148152291775,0.300000011921,0,77,,,,,,,,,,,,,,,,,,,,,,,,,,,,,,,,,11.3310470581,11.4041004181,-1.0,-1.0,,,,,,,,,,,,,,,,,,,,,,,,,,,,,,,,,,,,,,,,,,,,,,,,,,,,,,,,,,,,,,,,,,,,,,,,,,,,,,,,,,,,,,,,,,,,,,,,,,,,,,,1402376184,PX4FMU_V1,251760679a4bed86fdb10746062fde2cc23e460f,test,305419904.0
-0.00701543688774,-0.0135518684983,-1.51986527443,-0.000167275880813,0.00136238441337,0.0139553528279,-0.54024708271,0.589132785797,-9.83798217773,0.0,0.0,-1.51060402393,0.0,-0.54024708271,0.589132785797,-9.83798217773,0.0462660379708,0.0451410338283,0.00619615195319,0.0263885818422,0.125205025077,0.369271278381,1018.97998047,-47.588432312,36.3299980164,0.0,0.0,4.52570676804,4.38751649857,-3.57837820053,0.264695763588,-0.0381916128099,0.138703480363,-0.111945971847,-0.0354980044067,0.0,0.0,0.0,10,1,0,20.058795929,7.99177932739,,,,,,,,,,,,,,,,,,,,0.00458149984479,0.00863167736679,-0.000696987262927,0.0,0,2,0,0.803081512451,0,1,0.0,-0.0,0.0,0.0272277221084,1.0,0.776942372322,-0.998161792755,0.0,7,0,10.0,10.0,10.0,10.0,0.0,0.0,0.0,0.0,,,,0.0350750312209,0.0677599012852,0.00930877123028,-7,-8,0.0564552359283,0.0620822012424,0.300000011921,0,77,,,,,,,,,,,,,,,,,,,,,,,,,,,,,,,,,11.3310470581,11.4039535522,-1.0,-1.0,,,,,,,,,,,,,,,,,,,,,,,,,,,,,,,,,,,,,,,,,,,,,,,,,,,,,,,,,,,,,,,,,,,,,,,,,,,,,,,,,,,,,,,,,,,,,,,,,,,,,,,1402398578,PX4FMU_V1,251760679a4bed86fdb10746062fde2cc23e460f,test,305419904.0
-0.00616963207722,-0.0127049544826,-1.52247774601,0.0177327506244,0.0164547022432,-0.0127713037655,0.574848353863,-0.526288092136,-9.35567474365,0.0,0.0,-1.51060402393,0.0,0.574848353863,-0.526288092136,-9.35567474365,-0.0221348758787,-0.0228135772049,0.00132822571322,0.00895836390555,0.14767536521,0.359480112791,1018.98999023,-47.671295166,36.3299980164,0.0,0.0,4.52570676804,4.38751649857,-3.57861828804,0.264695763588,-0.0381916128099,0.138703480363,-0.111945971847,-0.0358703136444,0.0,0.0,0.0,10,1,0,20.058795929,7.99183940887,,,,,,,,,,,,,,,,,,,,0.00170478748623,0.00611916044727,0.00370263913646,0.0,0,2,0,0.803081512451,0,1,0.0,-0.0,0.0,0.0272277221084,1.0,0.776942372322,-0.998161792755,0.0,7,0,10.0,10.0,10.0,10.0,0.0,0.0,0.0,0.0,,,,0.0308465007693,0.0635251700878,0.0119129559025,0,0,0.0,0.0,0.300000011921,0,77,,,,,,,,,,,,,,,,,,,,,,,,,,,,,,,,,11.3310470581,11.403881073,-1.0,-1.0,,,,,,,,,,,,,,,,,,,,,,,,,,,,,,,,,,,,,,,,,,,,,,,,,,,,,,,,,,,,,,,,,,,,,,,,,,,,,,,,,,,,,,,,,,,,,,,,,,,,,,,1402419283,PX4FMU_V1,251760679a4bed86fdb10746062fde2cc23e460f,test,305419904.0
-0.0070523051545,-0.0136195169762,-1.52008116245,-0.0364509485662,-0.0321272946894,0.0115946587175,-0.883926510811,0.751726925373,-9.76897907257,0.0,0.0,-1.51060402393,0.0,-0.883926510811,0.751726925373,-9.76897907257,-0.00688068987802,-0.00426073884591,0.0103956339881,0.00437146006152,0.121876083314,0.36571085453,1019.03997803,-48.0855941772,36.3299980164,0.0,0.0,4.52570676804,4.38751649857,-3.57704567909,0.264695763588,-0.0381916128099,0.138703480363,-0.111945971847,-0.0342683121562,0.0,0.0,0.0,10,1,0,20.058795929,7.99196004868,,,,,,,,,,,,,,,,,,,,0.00932233873755,0.0130293080583,-0.000310422386974,0.0,0,2,0,0.803081512451,0,1,0.0,-0.0,0.0,0.0272277221084,0.99816006422,0.776942372322,-0.998161792755,0.0,7,0,10.0,10.0,10.0,10.0,0.0,0.0,0.0,0.0,,,,0.0352593511343,0.0680981576443,0.00952517613769,-4,4,0.0335992053151,-0.0340909101069,0.300000011921,43,77,,,,,,,,,,,,,,,,,,,,,,,,,,,,,,,,,11.3310470581,11.4037361145,-1.0,-1.0,,,,,,,,,,,,,,,,,,,,,,,,,,,,,,,,,,,,,,,,,,,,,,,,,,,,,,,,,,,,,,,,,,,,,,,,,,,,,,,,,,,,,,,,,,,,,,,,,,,,,,,1402440564,PX4FMU_V1,251760679a4bed86fdb10746062fde2cc23e460f,test,305419904.0
-0.00624063424766,-0.012797514908,-1.51927578449,0.0293784011155,0.0275820773095,-0.0232882536948,0.489011883736,-0.626819312572,-9.6448135376,0.0,0.0,-1.51060402393,0.0,0.489011883736,-0.626819312572,-9.6448135376,0.00015659048222,-0.00234228326008,-0.0279698427767,0.0484057031572,0.141017496586,0.36571085453,1018.97998047,-47.588432312,36.3299980164,0.0,0.0,4.52570676804,4.38751649857,-3.57613945007,0.264695763588,-0.0381916128099,0.138703480363,-0.111945971847,-0.0337946154177,0.0,0.0,0.0,10,1,0,20.058795929,7.99208021164,,,,,,,,,,,,,,,,,,,,0.000236998297623,0.00473276758566,0.00479998625815,0.0,0,2,0,0.803081512451,0,1,0.0,-0.0,0.0,0.0272277221084,0.99816006422,0.776942372322,-0.998161792755,0.0,7,0,10.0,10.0,10.0,10.0,0.0,0.0,0.0,0.0,,,,0.0312014650553,0.0639879852533,0.00871165283024,0,0,0.0,0.0,0.300000011921,0,77,,,,,,,,,,,,,,,,,,,,,,,,,,,,,,,,,11.3310470581,11.4035997391,-1.0,-1.0,,,,,,,,,,,,,,,,,,,,,,,,,,,,,,,,,,,,,,,,,,,,,,,,,,,,,,,,,,,,,,,,,,,,,,,,,,,,,,,,,,,,,,,,,,,,,,,,,,,,,,,1402462525,PX4FMU_V1,251760679a4bed86fdb10746062fde2cc23e460f,test,305419904.0
-0.00697303796187,-0.0135533995926,-1.52089965343,-0.0423387847841,-0.0355822965503,0.0152053255588,-0.937329530716,0.738821446896,-9.8380241394,0.0,0.0,-1.51060402393,0.0,-0.937329530716,0.738821446896,-9.8380241394,-0.0258703492582,-0.0160795450211,0.0253515485674,-0.0277368538082,0.144346430898,0.359480112791,1019.02996826,-48.0027351379,36.3299980164,0.0,0.0,4.52570676804,4.38751649857,-3.57556724548,0.264695763588,-0.0381916128099,0.138703480363,-0.111945971847,-0.0336113460362,0.0,0.0,0.0,10,1,0,20.058795929,7.9922003746,,,,,,,,,,,,,,,,,,,,0.0100362384692,0.0134354773909,-0.000729356659576,0.0,0,2,0,0.803081512451,0,1,0.0,-0.0,0.0,0.0272277221084,0.99816006422,0.776942372322,-0.996323525906,0.0,7,0,10.0,10.0,10.0,10.0,0.0,0.0,0.0,0.0,,,,0.0348630510271,0.0677675306797,0.0103429481387,0,0,0.0,0.0,0.300000011921,0,77,,,,,,,,,,,,,,,,,,,,,,,,,,,,,,,,,11.3310470581,11.4034547806,-1.0,-1.0,,,,,,,,,,,,,,,,,,,,,,,,,,,,,,,,,,,,,,,,,,,,,,,,,,,,,,,,,,,,,,,,,,,,,,,,,,,,,,,,,,,,,,,,,,,,,,,,,,,,,,,1402484072,PX4FMU_V1,251760679a4bed86fdb10746062fde2cc23e460f,test,305419904.0
-0.0062903277576,-0.0128406276926,-1.51969635487,0.0313662663102,0.0316767171025,-0.0194860156626,0.48482221365,-0.659361541271,-9.61361980438,0.0,0.0,-1.51060402393,0.0,0.48482221365,-0.659361541271,-9.61361980438,0.00671601854265,0.00813160836697,-0.0186052713543,-0.0158109087497,0.128533959389,0.368381172419,1019.0,-47.75415802,36.3299980164,0.0,0.0,4.52570676804,4.38751649857,-3.57217764854,0.264695763588,-0.0381916128099,0.138703480363,-0.111945971847,-0.031268440187,0.0,0.0,0.0,10,1,0,20.058795929,7.9923210144,,,,,,,,,,,,,,,,,,,,1.08741960503e-05,0.00422848947346,0.00429280847311,0.0,0,2,0,0.802254378796,0,1,0.0,-0.0,0.0,0.0272277221084,0.99816006422,0.776942372322,-0.998161792755,0.0,7,0,10.0,10.0,10.0,10.0,0.0,0.0,0.0,0.0,,,,0.0314499139786,0.0642035603523,0.00913270842284,0,0,0.0,0.0,0.300000011921,0,77,,,,,,,,,,,,,,,,,,,,,,,,,,,,,,,,,11.3394289017,11.4033184052,-1.0,-1.0,,,,,,,,,,,,,,,,,,,,,,,,,,,,,,,,,,,,,,,,,,,,,,,,,,,,,,,,,,,,,,,,,,,,,,,,,,,,,,,,,,,,,,,,,,,,,,,,,,,,,,,1402507232,PX4FMU_V1,251760679a4bed86fdb10746062fde2cc23e460f,test,305419904.0
-0.0069914041087,-0.0135610820726,-1.51817131042,-0.0432254448533,-0.0386157631874,0.0163151379675,-0.99889421463,0.601961493492,-9.84810256958,0.0,0.0,-1.51060402393,0.0,-0.99889421463,0.601961493492,-9.84810256958,-0.0298631563783,-0.0241496376693,0.0244769304991,0.0328102372587,0.162655591965,0.355919659138,1019.0,-47.75415802,36.3299980164,0.0,0.0,4.52570676804,4.38751649857,-3.57171320915,0.264695763588,-0.0381916128099,0.138703480363,-0.111945971847,-0.0298966169357,0.0,0.0,0.0,10,1,0,20.058795929,7.99238061905,,,,,,,,,,,,,,,,,,,,0.0101634403691,0.0138348210603,-0.0013050660491,0.0,0,2,0,0.802254378796,0,1,0.0,-0.0,0.0,0.0272277221084,0.99816006422,0.779448628426,-0.998161792755,0.0,7,0,10.0,10.0,10.0,10.0,0.0,0.0,0.0,0.0,,,,0.0349548719823,0.0678059384227,0.00761469779536,5,-28,-0.0454655401409,0.254893362522,0.300000011921,43,77,,,,,,,,,,,,,,,,,,,,,,,,,,,,,,,,,11.3310470581,11.4032459259,-1.0,-1.0,,,,,,,,,,,,,,,,,,,,,,,,,,,,,,,,,,,,,,,,,,,,,,,,,,,,,,,,,,,,,,,,,,,,,,,,,,,,,,,,,,,,,,,,,,,,,,,,,,,,,,,1402528380,PX4FMU_V1,251760679a4bed86fdb10746062fde2cc23e460f,test,305419904.0
-0.00635439157486,-0.0128792347386,-1.51830434799,0.0367381572723,0.0345616601408,-0.0244041401893,0.493647247553,-0.685678720474,-9.65333747864,0.0,0.0,-1.51060402393,0.0,0.493647247553,-0.685678720474,-9.65333747864,0.0198059789836,0.0149090932682,-0.0302383322269,0.0401492938399,0.160991117358,0.369271278381,1019.0199585,-47.9198760986,36.3199996948,0.0,0.0,4.52570676804,4.38751649857,-3.5692896843,0.264695763588,-0.0381916128099,0.138703480363,-0.111945971847,-0.0304020550102,0.0,0.0,0.0,10,1,0,20.058795929,7.99250125885,,,,,,,,,,,,,,,,,,,,-0.00064583402127,0.00387854361907,0.00482181180269,0.0,0,2,0,0.802254378796,0,1,0.0,-0.0,0.0,0.0272277221084,1.0,0.776942372322,-0.998161792755,0.0,7,0,10.0,10.0,10.0,10.0,0.0,0.0,0.0,0.0,,,,0.0317702032626,0.0643966123462,0.00774127151817,-2,-6,0.0210884287953,0.0542313791811,0.300000011921,0,77,,,,,,,,,,,,,,,,,,,,,,,,,,,,,,,,,11.3310470581,11.4031009674,-1.0,-1.0,,,,,,,,,,,,,,,,,,,,,,,,,,,,,,,,,,,,,,,,,,,,,,,,,,,,,,,,,,,,,,,,,,,,,,,,,,,,,,,,,,,,,,,,,,,,,,,,,,,,,,,1402550764,PX4FMU_V1,251760679a4bed86fdb10746062fde2cc23e460f,test,305419904.0
-0.00691176904365,-0.0134449312463,-1.52170705795,-0.0422302819788,-0.0366744473577,0.0122487768531,-0.917669355869,0.72713136673,-9.96001529694,0.0,0.0,-1.51060402393,0.0,-0.917669355869,0.72713136673,-9.96001529694,-0.038039766252,-0.0301605798304,0.0189965292811,-0.0139761557803,0.135191857815,0.352359265089,1019.00994873,-47.8370170593,36.3199996948,0.0,0.0,4.52570676804,4.38751649857,-3.56686162949,0.264695763588,-0.0381916128099,0.138703480363,-0.111945971847,-0.027725847438,0.0,0.0,0.0,10,1,0,20.058795929,7.99262046814,,,,,,,,,,,,,,,,,,,,0.00998231489211,0.0135069508106,-0.000164892859175,0.0,0,2,0,0.802254378796,0,1,0.0,-0.0,0.0,0.0272277221084,0.99816006422,0.776942372322,-0.998161792755,0.0,7,0,10.0,10.0,10.0,10.0,0.0,0.0,0.0,0.0,,,,0.034556761384,0.0672251805663,0.0111494911835,0,0,0.0,0.0,0.300000011921,0,77,,,,,,,,,,,,,,,,,,,,,,,,,,,,,,,,,11.3310470581,11.4029569626,-1.0,-1.0,,,,,,,,,,,,,,,,,,,,,,,,,,,,,,,,,,,,,,,,,,,,,,,,,,,,,,,,,,,,,,,,,,,,,,,,,,,,,,,,,,,,,,,,,,,,,,,,,,,,,,,1402571596,PX4FMU_V1,251760679a4bed86fdb10746062fde2cc23e460f,test,305419904.0
-0.00652407528833,-0.0130242798477,-1.51908099651,0.041676517576,0.0421852506697,-0.0114505374804,0.320729523897,-0.389041155577,-9.73365783691,0.0,0.0,-1.51060402393,0.0,0.320729523897,-0.389041155577,-9.73365783691,0.0510835647583,0.0516449324787,-0.0282578095794,0.0291407182813,0.133527368307,0.362150430679,1018.97998047,-47.588432312,36.3099975586,0.0,0.0,4.52570676804,4.38751649857,-3.56644129753,0.264695763588,-0.0381916128099,0.138703480363,-0.111945971847,-0.0281024426222,0.0,0.0,0.0,10,1,0,20.058795929,7.9927406311,,,,,,,,,,,,,,,,,,,,-0.00117753783707,0.00298176100478,0.00299550173804,0.0,0,2,0,0.802254378796,0,1,0.0,-0.0,0.0,0.0272277221084,0.99816006422,0.776942372322,-0.998161792755,0.0,7,0,10.0,10.0,10.0,10.0,0.0,0.0,0.0,0.0,,,,0.0326185338199,0.0651218742132,0.00851947255433,0,0,0.0,0.0,0.300000011921,0,77,,,,,,,,,,,,,,,,,,,,,,,,,,,,,,,,,11.3394289017,11.4028215408,-1.0,-1.0,,,,,,,,,,,,,,,,,,,,,,,,,,,,,,,,,,,,,,,,,,,,,,,,,,,,,,,,,,,,,,,,,,,,,,,,,,,,,,,,,,,,,,,,,,,,,,,,,,,,,,,1402593118,PX4FMU_V1,251760679a4bed86fdb10746062fde2cc23e460f,test,305419904.0
-0.00677497172728,-0.0133493710309,-1.51928603649,-0.0438424050808,-0.0416069701314,0.009461870417,-0.79424405098,0.515877485275,-10.0096130371,0.0,0.0,-1.51060402393,0.0,-0.79424405098,0.515877485275,-10.0096130371,-0.0523400902748,-0.0442187339067,0.0235227644444,0.0218016766012,0.175139114261,0.363930642605,1018.95996094,-47.422706604,36.3099975586,0.0,0.0,4.52570676804,4.38751649857,-3.56748127937,0.264695763588,-0.0381916128099,0.138703480363,-0.111945971847,-0.027901597321,0.0,0.0,0.0,10,1,0,20.058795929,7.99286079407,,,,,,,,,,,,,,,,,,,,0.0101029817015,0.0140860611573,-0.000110190878331,0.0,0,2,0,0.802254378796,0,1,0.0,-0.0,0.0,0.0272277221084,0.99816006422,0.776942372322,-0.998161792755,0.0,7,0,10.0,10.0,10.0,10.0,0.0,0.0,0.0,0.0,,,,0.0338728427887,0.0667473524809,0.00872726459056,0,0,0.0,0.0,0.300000011921,0,77,,,,,,,,,,,,,,,,,,,,,,,,,,,,,,,,,11.3310470581,11.4026699066,-1.0,-1.0,,,,,,,,,,,,,,,,,,,,,,,,,,,,,,,,,,,,,,,,,,,,,,,,,,,,,,,,,,,,,,,,,,,,,,,,,,,,,,,,,,,,,,,,,,,,,,,,,,,,,,,1402615269,PX4FMU_V1,251760679a4bed86fdb10746062fde2cc23e460f,test,305419904.0
-0.00667739380151,-0.0131763070822,-1.51912975311,0.0337285771966,0.0347798131406,-0.0102247176692,0.213414520025,-0.179792732,-9.76881408691,0.0,0.0,-1.51060402393,0.0,0.213414520025,-0.179792732,-9.76881408691,0.054113637656,0.0531732924283,-0.0352395474911,0.0144626367837,0.1043991521,0.36571085453,1018.95996094,-47.422706604,36.3099975586,0.0,0.0,4.52570676804,4.38751649857,-3.56902217865,0.264695763588,-0.0381916128099,0.138703480363,-0.111945971847,-0.0296992585063,0.0,0.0,0.0,10,1,0,20.058795929,7.99292087555,,,,,,,,,,,,,,,,,,,,-4.46605299658e-05,0.0040432875976,0.00281916884705,0.0,0,2,0,0.802254378796,0,1,0.0,-0.0,0.0,0.0272277221084,0.99816006422,0.776942372322,-0.998161792755,0.0,7,0,10.0,10.0,10.0,10.0,0.0,0.0,0.0,0.0,,,,0.0333850346506,0.0658820271492,0.00856974069029,0,0,0.0,0.0,0.300000011921,0,77,,,,,,,,,,,,,,,,,,,,,,,,,,,,,,,,,11.3310470581,11.402598381,-1.0,-1.0,,,,,,,,,,,,,,,,,,,,,,,,,,,,,,,,,,,,,,,,,,,,,,,,,,,,,,,,,,,,,,,,,,,,,,,,,,,,,,,,,,,,,,,,,,,,,,,,,,,,,,,1402636235,PX4FMU_V1,251760679a4bed86fdb10746062fde2cc23e460f,test,305419904.0
-0.00677422061563,-0.0133484229445,-1.52134048939,-0.0382538959384,-0.035135269165,0.013609746471,-0.721826851368,0.422055065632,-9.96027755737,0.0,0.0,-1.51060402393,0.0,-0.721826851368,0.422055065632,-9.96027755737,-0.0493423044682,-0.0423439629376,0.0301224179566,-0.0038849641569,0.168481230736,0.363930642605,1019.0,-47.75415802,36.3099975586,0.0,0.0,4.52570676804,4.38751649857,-3.56794381142,0.264695763588,-0.0381916128099,0.138703480363,-0.111945971847,-0.0265998933464,0.0,0.0,0.0,10,1,0,20.058795929,7.99304199219,,,,,,,,,,,,,,,,,,,,0.00937598850578,0.0132441241294,-0.00042420940008,0.0,0,2,0,0.802254378796,0,1,0.0,-0.0,0.0,0.0272277221084,0.99816006422,0.779448628426,-0.998161792755,0.0,7,0,10.0,10.0,10.0,10.0,0.0,0.0,0.0,0.0,,,,0.0338690951467,0.0667426139116,0.0107816839591,0,0,0.0,0.0,0.300000011921,0,77,,,,,,,,,,,,,,,,,,,,,,,,,,,,,,,,,11.3394289017,11.402472496,-1.0,-1.0,,,,,,,,,,,,,,,,,,,,,,,,,,,,,,,,,,,,,,,,,,,,,,,,,,,,,,,,,,,,,,,,,,,,,,,,,,,,,,,,,,,,,,,,,,,,,,,,,,,,,,,1402659111,PX4FMU_V1,251760679a4bed86fdb10746062fde2cc23e460f,test,305419904.0
-0.00669082021341,-0.0132192391902,-1.51951730251,0.0325642302632,0.034258890897,-0.00623709894717,0.199344813824,-0.101457566023,-9.73920726776,0.0,0.0,-1.51060402393,0.0,0.199344813824,-0.101457566023,-9.73920726776,0.053499661386,0.0555663257837,-0.025204051286,0.0337276235223,0.109392568469,0.363930642605,1018.98999023,-47.671295166,36.3099975586,0.0,0.0,4.52570676804,4.38751649857,-3.567684412,0.264695763588,-0.0381916128099,0.138703480363,-0.111945971847,-0.0290481839329,0.0,0.0,0.0,10,1,0,20.058795929,7.99316167831,,,,,,,,,,,,,,,,,,,,0.000115429975267,0.00413891393691,0.00227919197641,0.0,0,2,0,0.802254378796,0,1,0.0,-0.0,0.0,0.0272277221084,1.0,0.776942372322,-0.998161792755,0.0,7,0,10.0,10.0,10.0,10.0,0.0,0.0,0.0,0.0,,,,0.0334521532059,0.0660966932774,0.00895751360804,0,0,0.0,0.0,0.300000011921,0,77,,,,,,,,,,,,,,,,,,,,,,,,,,,,,,,,,11.3310470581,11.4023294449,-1.0,-1.0,,,,,,,,,,,,,,,,,,,,,,,,,,,,,,,,,,,,,,,,,,,,,,,,,,,,,,,,,,,,,,,,,,,,,,,,,,,,,,,,,,,,,,,,,,,,,,,,,,,,,,,1402679588,PX4FMU_V1,251760679a4bed86fdb10746062fde2cc23e460f,test,305419904.0
-0.00651885289699,-0.0130961751565,-1.521089077,-0.0265651214868,-0.0268287640065,-0.00445445720106,-0.179845571518,-0.046549487859,-9.95758247375,0.0,0.0,-1.51060402393,0.0,-0.179845571518,-0.046549487859,-9.95758247375,-0.0600895769894,-0.0568726696074,0.0177167374641,-0.0148935252801,0.168481230736,0.359480112791,1018.98999023,-47.671295166,36.2900009155,0.0,0.0,4.52570676804,4.38751649857,-3.56625890732,0.264695763588,-0.0381916128099,0.138703480363,-0.111945971847,-0.0262977220118,0.0,0.0,0.0,10,1,0,20.058795929,7.99328231812,,,,,,,,,,,,,,,,,,,,0.00769047718495,0.0120003130287,0.00224734167568,0.0,0,2,0,0.802254378796,0,1,0.0,-0.0,0.0,0.0272277221084,1.0,0.776942372322,-0.998161792755,0.0,7,0,10.0,10.0,10.0,10.0,0.0,0.0,0.0,0.0,,,,0.0325923971832,0.0654813349247,0.0105278193951,0,0,0.0,0.0,0.300000011921,0,77,,,,,,,,,,,,,,,,,,,,,,,,,,,,,,,,,11.3310470581,11.4021863937,-1.0,-1.0,,,,,,,,,,,,,,,,,,,,,,,,,,,,,,,,,,,,,,,,,,,,,,,,,,,,,,,,,,,,,,,,,,,,,,,,,,,,,,,,,,,,,,,,,,,,,,,,,,,,,,,1402700886,PX4FMU_V1,251760679a4bed86fdb10746062fde2cc23e460f,test,305419904.0
-0.00675451988354,-0.0132520096377,-1.51764643192,0.030329875648,0.0323827564716,-0.000691013410687,0.124334037304,-0.0513056591153,-9.74703502655,0.0,0.0,-1.51060402393,0.0,0.124334037304,-0.0513056591153,-9.74703502655,0.0562307015061,0.0579431578517,-0.0275304280221,0.0511578544974,0.120211623609,0.362150430679,1018.97998047,-47.588432312,36.2900009155,0.0,0.0,4.52570676804,4.38751649857,-3.56699156761,0.264695763588,-0.0381916128099,0.138703480363,-0.111945971847,-0.029087100178,0.0,0.0,0.0,10,1,0,20.058795929,7.99340248108,,,,,,,,,,,,,,,,,,,,0.000447296857601,0.00440411455929,0.00116672646254,0.0,0,2,0,0.801409423351,0,1,0.0,-0.0,0.0,0.0272277221084,1.0,0.776942372322,-0.998161792755,0.0,7,0,10.0,10.0,10.0,10.0,0.0,0.0,0.0,0.0,,,,0.0337706208229,0.066260561347,0.00708716269583,0,0,0.0,0.0,0.300000011921,0,77,,,,,,,,,,,,,,,,,,,,,,,,,,,,,,,,,11.3310470581,11.4020433426,-1.0,-1.0,,,,,,,,,,,,,,,,,,,,,,,,,,,,,,,,,,,,,,,,,,,,,,,,,,,,,,,,,,,,,,,,,,,,,,,,,,,,,,,,,,,,,,,,,,,,,,,,,,,,,,,1402723055,PX4FMU_V1,251760679a4bed86fdb10746062fde2cc23e460f,test,305419904.0
-0.00651217717677,-0.0130648314953,-1.52095031738,-0.0236524809152,-0.025180188939,-0.00977154262364,-0.0958553701639,-0.0239217877388,-9.83988761902,0.0,0.0,-1.51060402393,0.0,-0.0958553701639,-0.0239217877388,-9.83988761902,-0.0587871670723,-0.0589459240437,0.0170338694006,-0.0130587723106,0.135191857815,0.359480112791,1019.00994873,-47.8370170593,36.2900009155,0.0,0.0,4.52570676804,4.38751649857,-3.56705117226,0.264695763588,-0.0381916128099,0.138703480363,-0.111945971847,-0.0272486228496,0.0,0.0,0.0,10,1,0,20.058795929,7.99346256256,,,,,,,,,,,,,,,,,,,,0.00730749685317,0.0117656253278,0.00302406726405,0.0,0,2,0,0.801409423351,0,1,0.0,-0.0,0.0,0.0272277221084,0.99816006422,0.776942372322,-0.996323525906,0.0,7,0,10.0,10.0,10.0,10.0,0.0,0.0,0.0,0.0,,,,0.0325590334833,0.0653246194124,0.0103889042512,7,10,-0.0654545500875,-0.0904813706875,0.300000011921,0,77,,,,,,,,,,,,,,,,,,,,,,,,,,,,,,,,,11.3310470581,11.4019727707,-1.0,-1.0,,,,,,,,,,,,,,,,,,,,,,,,,,,,,,,,,,,,,,,,,,,,,,,,,,,,,,,,,,,,,,,,,,,,,,,,,,,,,,,,,,,,,,,,,,,,,,,,,,,,,,,1402744157,PX4FMU_V1,251760679a4bed86fdb10746062fde2cc23e460f,test,305419904.0
-0.0069452370517,-0.0134623823687,-1.51612627506,0.0136033929884,0.0155697502196,0.0145136434585,-0.260952323675,0.362456262112,-9.91416740417,0.0,0.0,-1.51060402393,0.0,-0.260952323675,0.362456262112,-9.91416740417,0.0531190559268,0.0517273247242,0.00027954718098,0.0364797748625,0.148507609963,0.37194159627,1018.98999023,-47.671295166,36.2900009155,0.0,0.0,4.52570676804,4.38751649857,-3.5671005249,0.264695763588,-0.0381916128099,0.138703480363,-0.111945971847,-0.0285019911826,0.0,0.0,0.0,10,1,0,20.058795929,7.99358272552,,,,,,,,,,,,,,,,,,,,0.00274568912573,0.00672654947266,-0.00134168798104,0.0,0,2,0,0.801409423351,0,1,0.0,-0.0,0.0,0.0272277221084,1.0,0.776942372322,-0.998161792755,0.0,7,0,10.0,10.0,10.0,10.0,0.0,0.0,0.0,0.0,,,,0.0347240790725,0.0673124417663,0.00556905800477,0,0,0.0,0.0,0.300000011921,0,77,,,,,,,,,,,,,,,,,,,,,,,,,,,,,,,,,11.3226661682,11.4018478394,-1.0,-1.0,,,,,,,,,,,,,,,,,,,,,,,,,,,,,,,,,,,,,,,,,,,,,,,,,,,,,,,,,,,,,,,,,,,,,,,,,,,,,,,,,,,,,,,,,,,,,,,,,,,,,,,1402765373,PX4FMU_V1,251760679a4bed86fdb10746062fde2cc23e460f,test,305419904.0
-0.00639276858419,-0.0129644032568,-1.51265525818,-0.0189341101795,-0.0193484425545,-0.0207914747298,0.118632413447,-0.141594707966,-9.84030246735,0.0,0.0,-1.51060402393,0.0,0.118632413447,-0.141594707966,-9.84030246735,-0.0571303218603,-0.0560096763074,-0.00323778553866,0.0557447597384,0.152668789029,0.37194159627,1019.0,-47.75415802,36.2900009155,0.0,0.0,4.52570676804,4.38751649857,-3.56717967987,0.264695763588,-0.0381916128099,0.138703480363,-0.111945971847,-0.0262146480381,0.0,0.0,0.0,10,1,0,20.058795929,7.99370288849,,,,,,,,,,,,,,,,,,,,0.00661650067195,0.0109422160313,0.00343262939714,0.0,0,2,0,0.801409423351,0,1,0.0,-0.0,0.0,0.0272277221084,0.99816006422,0.779448628426,-0.998161792755,0.0,7,0,10.0,10.0,10.0,10.0,0.0,0.0,0.0,0.0,,,,0.0319620519876,0.0648224502802,0.00209272024222,0,0,0.0,0.0,0.300000011921,0,77,,,,,,,,,,,,,,,,,,,,,,,,,,,,,,,,,11.3310470581,11.4017066956,-1.0,-1.0,,,,,,,,,,,,,,,,,,,,,,,,,,,,,,,,,,,,,,,,,,,,,,,,,,,,,,,,,,,,,,,,,,,,,,,,,,,,,,,,,,,,,,,,,,,,,,,,,,,,,,,1402787170,PX4FMU_V1,251760679a4bed86fdb10746062fde2cc23e460f,test,305419904.0
-0.00698754331097,-0.013527947478,-1.51639962196,0.00354954879731,0.00576107157394,0.0206030476838,-0.357829600573,0.47838267684,-9.90846729279,0.0,0.0,-1.51060402393,0.0,-0.357829600573,0.47838267684,-9.90846729279,0.0452072620392,0.0442308150232,0.00602362165228,-0.0240673329681,0.146010890603,0.367491066456,1018.9699707,-47.505569458,36.2900009155,0.0,0.0,4.52570676804,4.38751649857,-3.56774306297,0.264695763588,-0.0381916128099,0.138703480363,-0.111945971847,-0.0295196920633,0.0,0.0,0.0,10,1,0,20.058795929,7.99382305145,,,,,,,,,,,,,,,,,,,,0.00408018520102,0.00804429780692,-0.00221402640454,0.0,0,2,0,0.801409423351,0,1,0.0,-0.0,0.0,0.0272277221084,0.99816006422,0.779448628426,-0.998161792755,0.0,7,0,10.0,10.0,10.0,10.0,0.0,0.0,0.0,0.0,,,,0.0349355898798,0.0676402896643,0.00584287196398,0,0,0.0,0.0,0.300000011921,0,77,,,,,,,,,,,,,,,,,,,,,,,,,,,,,,,,,11.3394289017,11.4015741348,-1.0,-1.0,,,,,,,,,,,,,,,,,,,,,,,,,,,,,,,,,,,,,,,,,,,,,,,,,,,,,,,,,,,,,,,,,,,,,,,,,,,,,,,,,,,,,,,,,,,,,,,,,,,,,,,1402808208,PX4FMU_V1,251760679a4bed86fdb10746062fde2cc23e460f,test,305419904.0
-0.00631085410714,-0.0128918336704,-1.51490294933,0.00774006498978,0.00710839498788,-0.0303936079144,0.425402998924,-0.530501306057,-9.54471588135,0.0,0.0,-1.51060402393,0.0,0.425402998924,-0.530501306057,-9.54471588135,-0.030360462144,-0.0299798585474,-0.0284580141306,-0.01122400444,0.111057035625,0.357699900866,1019.0,-47.75415802,36.2900009155,0.0,0.0,4.52570676804,4.38751649857,-3.56781816483,0.264695763588,-0.0381916128099,0.138703480363,-0.111945971847,-0.0287658981979,0.0,0.0,0.0,10,1,0,20.058795929,7.99388360977,,,,,,,,,,,,,,,,,,,,0.00309561844915,0.00745565630496,0.00520997028798,0.0,0,2,0,0.801409423351,0,1,0.0,-0.0,0.0,0.0272277221084,0.99816006422,0.779448628426,-0.998161792755,0.0,7,0,10.0,10.0,10.0,10.0,0.0,0.0,0.0,0.0,,,,0.031552515924,0.0644595995545,0.00433952687308,0,0,0.0,0.0,0.300000011921,0,77,,,,,,,,,,,,,,,,,,,,,,,,,,,,,,,,,11.3310470581,11.4015035629,-1.0,-1.0,,,,,,,,,,,,,,,,,,,,,,,,,,,,,,,,,,,,,,,,,,,,,,,,,,,,,,,,,,,,,,,,,,,,,,,,,,,,,,,,,,,,,,,,,,,,,,,,,,,,,,,1402828939,PX4FMU_V1,251760679a4bed86fdb10746062fde2cc23e460f,test,305419904.0
-0.00699271680787,-0.013562518172,-1.51090931892,0.00205780309625,0.00281224329956,0.0203029997647,-0.379847049713,0.51814609766,-9.87622451782,0.0,0.0,-1.51060402393,0.0,-0.379847049713,0.51814609766,-9.87622451782,0.0414050295949,0.0399293415248,0.00496178166941,0.0520752370358,0.161823362112,0.371051490307,1018.98999023,-47.671295166,36.2799987793,0.0,0.0,4.52570676804,4.38751649857,-3.5670363903,0.264695763588,-0.0381916128099,0.138703480363,-0.111945971847,-0.027902983129,0.0,0.0,0.0,10,1,0,20.058795929,7.99400424957,,,,,,,,,,,,,,,,,,,,0.00427747284994,0.00845011603087,-0.00299254013225,0.0,0,2,0,0.801409423351,0,1,0.0,-0.0,0.0,0.0272277221084,1.0,0.776942372322,-0.998161792755,0.0,7,0,10.0,10.0,10.0,10.0,0.0,0.0,0.0,0.0,,,,0.0349614396691,0.0678131356835,0.000352732895408,0,0,0.0,0.0,0.300000011921,0,77,,,,,,,,,,,,,,,,,,,,,,,,,,,,,,,,,11.3226661682,11.4013538361,-1.0,-1.0,,,,,,,,,,,,,,,,,,,,,,,,,,,,,,,,,,,,,,,,,,,,,,,,,,,,,,,,,,,,,,,,,,,,,,,,,,,,,,,,,,,,,,,,,,,,,,,,,,,,,,,1402851395,PX4FMU_V1,251760679a4bed86fdb10746062fde2cc23e460f,test,305419904.0
-0.00628671841696,-0.0128987487406,-1.5127569437,0.0133970445022,0.0112019265071,-0.0276701766998,0.468216836452,-0.518690347672,-9.63893985748,0.0,0.0,-1.51060402393,0.0,0.468216836452,-0.518690347672,-9.63893985748,-0.0206121467054,-0.0232179798186,-0.0341020077467,-0.012141388841,0.138520792127,0.364820748568,1019.00994873,-47.8370170593,36.2799987793,0.0,0.0,4.52570676804,4.38751649857,-3.56580162048,0.264695763588,-0.0381916128099,0.138703480363,-0.111945971847,-0.0264355260879,0.0,0.0,0.0,10,1,0,20.058795929,7.99412345886,,,,,,,,,,,,,,,,,,,,0.00234452402219,0.00692798849195,0.00447955075651,0.0,0,2,0,0.801409423351,0,1,0.0,-0.0,0.0,0.0272277221084,0.99816006422,0.776942372322,-0.998161792755,0.0,7,0,10.0,10.0,10.0,10.0,0.0,0.0,0.0,0.0,,,,0.0314318463206,0.0644941478968,0.00219349376857,0,0,0.0,0.0,0.300000011921,0,77,,,,,,,,,,,,,,,,,,,,,,,,,,,,,,,,,11.3310470581,11.4012212753,-1.0,-1.0,,,,,,,,,,,,,,,,,,,,,,,,,,,,,,,,,,,,,,,,,,,,,,,,,,,,,,,,,,,,,,,,,,,,,,,,,,,,,,,,,,,,,,,,,,,,,,,,,,,,,,,1402872143,PX4FMU_V1,251760679a4bed86fdb10746062fde2cc23e460f,test,305419904.0
-0.00699234986678,-0.0136248525232,-1.51297342777,-0.0244022812694,-0.0220890771598,0.0256530232728,-0.835565686226,0.666323065758,-9.91232299805,0.0,0.0,-1.51060402393,0.0,-0.835565686226,0.666323065758,-9.91232299805,0.00385323120281,0.00556702911854,0.0434103347361,0.0401492938399,0.165984541178,0.369271278381,1019.0,-47.75415802,36.2700004578,0.0,0.0,4.52570676804,4.38751649857,-3.56401348114,0.264695763588,-0.0381916128099,0.138703480363,-0.111945971847,-0.0267780367285,0.0,0.0,0.0,10,1,0,20.058795929,7.99424362183,,,,,,,,,,,,,,,,,,,,0.00771704362705,0.0117278089747,-0.00348539743572,0.0,0,2,0,0.801409423351,0,1,0.0,-0.0,0.0,0.0272277221084,1.0,0.776942372322,-0.998161792755,0.0,7,0,10.0,10.0,10.0,10.0,0.0,0.0,0.0,0.0,,,,0.0349595919251,0.0681248381734,0.00241704168729,-2,9,0.02668909356,-0.0855089500546,0.300000011921,55,77,,,,,,,,,,,,,,,,,,,,,,,,,,,,,,,,,11.3310470581,11.4010725021,-1.0,-1.0,,,,,,,,,,,,,,,,,,,,,,,,,,,,,,,,,,,,,,,,,,,,,,,,,,,,,,,,,,,,,,,,,,,,,,,,,,,,,,,,,,,,,,,,,,,,,,,,,,,,,,,1402893396,PX4FMU_V1,251760679a4bed86fdb10746062fde2cc23e460f,test,305419904.0
-0.00632653525099,-0.0129628367722,-1.51437485218,0.0107209039852,0.0095165008679,-0.0330142453313,0.406451433897,-0.475110352039,-9.55664730072,0.0,0.0,-1.51060402393,0.0,0.406451433897,-0.475110352039,-9.55664730072,-0.0230050049722,-0.0257906988263,-0.0400842949748,-0.021315196529,0.121043846011,0.363040536642,1018.9699707,-47.505569458,36.2700004578,0.0,0.0,4.52570676804,4.38751649857,-3.56510281563,0.264695763588,-0.0381916128099,0.138703480363,-0.111945971847,-0.0252265930176,0.0,0.0,0.0,10,1,0,20.058795929,7.9943652153,,,,,,,,,,,,,,,,,,,,0.00271830079146,0.00718875508755,0.00552391353995,0.0,0,2,0,0.801409423351,0,1,0.0,-0.0,0.0,0.0272277221084,0.99816006422,0.776942372322,-0.998161792755,0.0,7,0,10.0,10.0,10.0,10.0,0.0,0.0,0.0,0.0,,,,0.031630910933,0.06481461972,0.0038118425291,0,0,0.0,0.0,0.300000011921,0,77,,,,,,,,,,,,,,,,,,,,,,,,,,,,,,,,,11.3310470581,11.4009332657,-1.0,-1.0,,,,,,,,,,,,,,,,,,,,,,,,,,,,,,,,,,,,,,,,,,,,,,,,,,,,,,,,,,,,,,,,,,,,,,,,,,,,,,,,,,,,,,,,,,,,,,,,,,,,,,,1402915846,PX4FMU_V1,251760679a4bed86fdb10746062fde2cc23e460f,test,305419904.0
-0.00704293418676,-0.0136682409793,-1.51430583,-0.0245962031186,-0.0213845726103,0.0298758111894,-0.87065154314,0.672948598862,-9.90089797974,0.0,0.0,-1.51060402393,0.0,-0.87065154314,0.672948598862,-9.90089797974,0.00226229941472,0.00533816125244,0.046075515449,-0.0103066358715,0.119379386306,0.351469159126,1019.0,-47.75415802,36.2700004578,0.0,0.0,4.52570676804,4.38751649857,-3.56462955475,0.264695763588,-0.0381916128099,0.138703480363,-0.111945971847,-0.0255402997136,0.0,0.0,0.0,10,1,0,20.058795929,7.99442434311,,,,,,,,,,,,,,,,,,,,0.00777512742206,0.0116644231603,-0.00391887780279,0.0,0,2,0,0.800621688366,0,1,0.0,-0.0,0.0,0.0272277221084,0.99816006422,0.776942372322,-0.998161792755,0.0,7,0,10.0,10.0,10.0,10.0,0.0,0.0,0.0,0.0,,,,0.0352124720812,0.0683417618275,0.00374996103346,-15,-40,0.0693929567933,0.180424496531,0.300000011921,43,77,,,,,,,,,,,,,,,,,,,,,,,,,,,,,,,,,11.3310470581,11.4008636475,-1.0,-1.0,,,,,,,,,,,,,,,,,,,,,,,,,,,,,,,,,,,,,,,,,,,,,,,,,,,,,,,,,,,,,,,,,,,,,,,,,,,,,,,,,,,,,,,,,,,,,,,,,,,,,,,1402936657,PX4FMU_V1,251760679a4bed86fdb10746062fde2cc23e460f,test,305419904.0
-0.00646645296365,-0.0130800269544,-1.51337385178,0.028143575415,0.0263952240348,-0.026731967926,0.376898109913,-0.558914780617,-9.59279727936,0.0,0.0,-1.51060402393,0.0,0.376898109913,-0.558914780617,-9.59279727936,0.0121166072786,0.00944242812693,-0.0488237179816,0.0218016766012,0.156829938293,0.379062443972,1019.0199585,-47.9198760986,36.2599983215,0.0,0.0,4.52570676804,4.38751649857,-3.56270051003,0.264695763588,-0.0381916128099,0.138703480363,-0.111945971847,-0.0253982078284,0.0,0.0,0.0,10,1,0,20.058795929,7.99454498291,,,,,,,,,,,,,,,,,,,,0.000544289767276,0.00507069658488,0.00443162070587,0.0,0,2,0,0.800621688366,0,1,0.0,-0.0,0.0,0.0272277221084,1.0,0.776942372322,-0.998161792755,0.0,7,0,10.0,10.0,10.0,10.0,0.0,0.0,0.0,0.0,,,,0.0323304198682,0.0654005855322,0.00281216972508,0,0,0.0,0.0,0.300000011921,0,77,,,,,,,,,,,,,,,,,,,,,,,,,,,,,,,,,11.3394289017,11.4007329941,-1.0,-1.0,,,,,,,,,,,,,,,,,,,,,,,,,,,,,,,,,,,,,,,,,,,,,,,,,,,,,,,,,,,,,,,,,,,,,,,,,,,,,,,,,,,,,,,,,,,,,,,,,,,,,,,1402957859,PX4FMU_V1,251760679a4bed86fdb10746062fde2cc23e460f,test,305419904.0
-0.00703589525074,-0.0136486040428,-1.51342093945,-0.0209226887673,-0.0191322099417,0.0274632275105,-0.871572256088,0.590734302998,-9.87420940399,0.0,0.0,-1.51060402393,0.0,-0.871572256088,0.590734302998,-9.87420940399,0.00407664105296,0.00515256915241,0.0447157919407,0.0410666614771,0.144346430898,0.357699900866,1018.98999023,-47.671295166,36.2599983215,0.0,0.0,4.52570676804,4.38751649857,-3.56123733521,0.264695763588,-0.0381916128099,0.138703480363,-0.111945971847,-0.0242898594588,0.0,0.0,0.0,10,1,0,20.058795929,7.99466514587,,,,,,,,,,,,,,,,,,,,0.00729299802333,0.0113588534296,-0.00368974800222,0.0,0,2,0,0.800621688366,0,1,0.0,-0.0,0.0,0.0272277221084,0.99816006422,0.776942372322,-0.998161792755,0.0,7,0,10.0,10.0,10.0,10.0,0.0,0.0,0.0,0.0,,,,0.0351772978902,0.0682435855269,0.00286490889266,0,0,0.0,0.0,0.300000011921,0,77,,,,,,,,,,,,,,,,,,,,,,,,,,,,,,,,,11.3226661682,11.4005851746,-1.0,-1.0,,,,,,,,,,,,,,,,,,,,,,,,,,,,,,,,,,,,,,,,,,,,,,,,,,,,,,,,,,,,,,,,,,,,,,,,,,,,,,,,,,,,,,,,,,,,,,,,,,,,,,,1402979505,PX4FMU_V1,251760679a4bed86fdb10746062fde2cc23e460f,test,305419904.0
-0.00644574780017,-0.0130399791524,-1.51284360886,0.0287180971354,0.0289344917983,-0.0191079936922,0.445054590702,-0.553112506866,-9.62495422363,0.0,0.0,-1.51060402393,0.0,0.445054590702,-0.553112506866,-9.62495422363,0.0142746390775,0.0149840917438,-0.040058940649,0.038314525038,0.132695138454,0.350579053164,1019.00994873,-47.8370170593,36.25,0.0,0.0,4.52570676804,4.38751649857,-3.56095027924,0.264695763588,-0.0381916128099,0.138703480363,-0.111945971847,-0.0237052999437,0.0,0.0,0.0,10,1,0,20.058795929,7.99478673935,,,,,,,,,,,,,,,,,,,,0.000456146488432,0.00471456022933,0.00320843537338,0.0,0,2,0,0.800621688366,0,1,0.0,-0.0,0.0,0.0272277221084,0.99816006422,0.776942372322,-0.998161792755,0.0,7,0,10.0,10.0,10.0,10.0,0.0,0.0,0.0,0.0,,,,0.0322269164026,0.0652003437281,0.00228157453239,0,0,0.0,0.0,0.300000011921,0,77,,,,,,,,,,,,,,,,,,,,,,,,,,,,,,,,,11.3394289017,11.4004545212,-1.0,-1.0,,,,,,,,,,,,,,,,,,,,,,,,,,,,,,,,,,,,,,,,,,,,,,,,,,,,,,,,,,,,,,,,,,,,,,,,,,,,,,,,,,,,,,,,,,,,,,,,,,,,,,,1403000236,PX4FMU_V1,251760679a4bed86fdb10746062fde2cc23e460f,test,305419904.0
-0.00691919401288,-0.0135129559785,-1.51552796364,-0.0365388728678,-0.0330603122711,0.00422182679176,-0.732302546501,0.542881548405,-9.86364555359,0.0,0.0,-1.51060402393,0.0,-0.732302546501,0.542881548405,-9.86364555359,-0.0338342227042,-0.0316259115934,0.0411674715579,-0.0130587723106,0.144346430898,0.38173276186,1018.98999023,-47.671295166,36.25,0.0,0.0,4.52570676804,4.38751649857,-3.56029891968,0.264695763588,-0.0381916128099,0.138703480363,-0.111945971847,-0.0220628660172,0.0,0.0,0.0,10,1,0,20.058795929,7.99484634399,,,,,,,,,,,,,,,,,,,,0.00924725551158,0.0130813317373,0.0001123317561,0.0,0,2,0,0.800621688366,0,1,0.0,-0.0,0.0,0.0272277221084,1.0,0.776942372322,-0.998161792755,0.0,7,0,10.0,10.0,10.0,10.0,0.0,0.0,0.0,0.0,,,,0.0345938615501,0.0675653219223,0.00497070513666,0,0,0.0,0.0,0.300000011921,0,77,,,,,,,,,,,,,,,,,,,,,,,,,,,,,,,,,11.3310470581,11.400384903,-1.0,-1.0,,,,,,,,,,,,,,,,,,,,,,,,,,,,,,,,,,,,,,,,,,,,,,,,,,,,,,,,,,,,,,,,,,,,,,,,,,,,,,,,,,,,,,,,,,,,,,,,,,,,,,,1403021821,PX4FMU_V1,251760679a4bed86fdb10746062fde2cc23e460f,test,305419904.0
-0.00650587957352,-0.0131052695215,-1.51592695713,0.0320893339813,0.0313653200865,-0.0127454083413,0.387981623411,-0.540374219418,-9.7576084137,0.0,0.0,-1.51060402393,0.0,0.387981623411,-0.540374219418,-9.7576084137,0.0240356512368,0.021740462631,-0.0439402833581,0.0236364454031,0.116882666945,0.364820748568,1018.97998047,-47.588432312,36.25,0.0,0.0,4.52570676804,4.38751649857,-3.56084299088,0.264695763588,-0.0381916128099,0.138703480363,-0.111945971847,-0.0237874500453,0.0,0.0,0.0,10,1,0,20.058795929,7.9949669838,,,,,,,,,,,,,,,,,,,,5.69662806811e-05,0.00444099493325,0.00271664117463,0.0,0,2,0,0.800621688366,0,1,0.0,-0.0,0.0,0.0272277221084,0.99816006422,0.776942372322,-0.998161792755,0.0,7,0,10.0,10.0,10.0,10.0,0.0,0.0,0.0,0.0,,,,0.0325275361538,0.0655268207192,0.00536553189158,0,0,0.0,0.0,0.300000011921,0,77,,,,,,,,,,,,,,,,,,,,,,,,,,,,,,,,,11.3226661682,11.4002380371,-1.0,-1.0,,,,,,,,,,,,,,,,,,,,,,,,,,,,,,,,,,,,,,,,,,,,,,,,,,,,,,,,,,,,,,,,,,,,,,,,,,,,,,,,,,,,,,,,,,,,,,,,,,,,,,,1403043889,PX4FMU_V1,251760679a4bed86fdb10746062fde2cc23e460f,test,305419904.0
-0.00687581300735,-0.0134648969397,-1.51755511761,-0.0361877642572,-0.0327016375959,-0.00570372492075,-0.625676214695,0.510596394539,-9.94503307343,0.0,0.0,-1.51060402393,0.0,-0.625676214695,0.510596394539,-9.94503307343,-0.0405740588903,-0.0361671708524,0.0381422862411,-0.0048023480922,0.154333248734,0.376392126083,1019.0,-47.75415802,36.2399978638,0.0,0.0,4.52570676804,4.38751649857,-3.55937719345,0.264695763588,-0.0381916128099,0.138703480363,-0.111945971847,-0.0216096732765,0.0,0.0,0.0,10,1,0,20.058795929,7.99508666992,,,,,,,,,,,,,,,,,,,,0.00917341839522,0.0130034638569,0.00190515664872,0.0,0,2,0,0.800621688366,0,1,0.0,-0.0,0.0,0.0272277221084,1.0,0.776942372322,-0.998161792755,0.0,7,0,10.0,10.0,10.0,10.0,0.0,0.0,0.0,0.0,,,,0.0343769937754,0.0673250183463,0.00699731847271,0,0,0.0,0.0,0.300000011921,0,77,,,,,,,,,,,,,,,,,,,,,,,,,,,,,,,,,11.3310470581,11.4000997543,-1.0,-1.0,,,,,,,,,,,,,,,,,,,,,,,,,,,,,,,,,,,,,,,,,,,,,,,,,,,,,,,,,,,,,,,,,,,,,,,,,,,,,,,,,,,,,,,,,,,,,,,,,,,,,,,1403064754,PX4FMU_V1,251760679a4bed86fdb10746062fde2cc23e460f,test,305419904.0
-0.0066969813779,-0.0133034270257,-1.51580059528,0.0339756980538,0.033983707428,0.00896225497127,0.148411095142,-0.342082977295,-9.71065711975,0.0,0.0,-1.51060402393,0.0,0.148411095142,-0.342082977295,-9.71065711975,0.0497648343444,0.0497138239443,-0.0229133814573,0.0273059643805,0.133527368307,0.344348311424,1018.9699707,-47.505569458,36.2399978638,0.0,0.0,4.52570676804,4.38751649857,-3.55990099907,0.264695763588,-0.0381916128099,0.138703480363,-0.111945971847,-0.0228413902223,0.0,0.0,0.0,10,1,0,20.058795929,7.99520683289,,,,,,,,,,,,,,,,,,,,-6.4059640863e-05,0.00422941055149,-0.000558165891562,0.0,0,2,0,0.800621688366,0,1,0.0,-0.0,0.0,0.0272277221084,0.99816006422,0.779448628426,-0.998161792755,0.0,7,0,10.0,10.0,10.0,10.0,0.0,0.0,0.0,0.0,,,,0.0334829315543,0.0665176361799,0.00524114910513,0,0,0.0,0.0,0.300000011921,0,77,,,,,,,,,,,,,,,,,,,,,,,,,,,,,,,,,11.3310470581,11.3999538422,-1.0,-1.0,,,,,,,,,,,,,,,,,,,,,,,,,,,,,,,,,,,,,,,,,,,,,,,,,,,,,,,,,,,,,,,,,,,,,,,,,,,,,,,,,,,,,,,,,,,,,,,,,,,,,,,1403085949,PX4FMU_V1,251760679a4bed86fdb10746062fde2cc23e460f,test,305419904.0
-0.00683903647587,-0.0134521210566,-1.51571023464,-0.0369570553303,-0.034462865442,-0.0132445842028,-0.568935573101,0.430098831654,-9.96150016785,0.0,0.0,-1.51060402393,0.0,-0.568935573101,0.430098831654,-9.96150016785,-0.0440615788102,-0.0411362498999,0.0227981768548,0.0291407182813,0.118547149003,0.361260324717,1019.0,-47.75415802,36.2399978638,0.0,0.0,4.52570676804,4.38751649857,-3.5609126091,0.264695763588,-0.0381916128099,0.138703480363,-0.111945971847,-0.0224351268262,0.0,0.0,0.0,10,1,0,20.058795929,7.99532699585,,,,,,,,,,,,,,,,,,,,0.00924952141941,0.0132241174579,0.00275951717049,0.0,0,2,0,0.800621688366,0,1,0.0,-0.0,0.0,0.0272277221084,0.99816006422,0.776942372322,-0.998161792755,0.0,7,0,10.0,10.0,10.0,10.0,0.0,0.0,0.0,0.0,,,,0.0341931134462,0.0672611147165,0.00515219615772,-10,7,0.0400857999921,-0.0296880975366,0.300000011921,51,77,,,,,,,,,,,,,,,,,,,,,,,,,,,,,,,,,11.3310470581,11.3998165131,-1.0,-1.0,,,,,,,,,,,,,,,,,,,,,,,,,,,,,,,,,,,,,,,,,,,,,,,,,,,,,,,,,,,,,,,,,,,,,,,,,,,,,,,,,,,,,,,,,,,,,,,,,,,,,,,1403108347,PX4FMU_V1,251760679a4bed86fdb10746062fde2cc23e460f,test,305419904.0
-0.00678262161091,-0.013374815695,-1.51574194431,0.0283126588911,0.0306788235903,0.0190465804189,0.0674804151058,-0.189470410347,-9.75191116333,0.0,0.0,-1.51060402393,0.0,0.0674804151058,-0.189470410347,-9.75191116333,0.047186691314,0.0492855943739,-0.0129619687796,0.0144626367837,0.189287111163,0.363040536642,1018.97998047,-47.588432312,36.2399978638,0.0,0.0,4.52570676804,4.38751649857,-3.56108927727,0.264695763588,-0.0381916128099,0.138703480363,-0.111945971847,-0.0236931182444,0.0,0.0,0.0,10,1,0,20.058795929,7.99538707733,,,,,,,,,,,,,,,,,,,,0.000727795122657,0.00470544723794,-0.00207949406467,0.0,0,2,0,0.799831390381,0,1,0.0,-0.0,0.0,0.0272277221084,0.99816006422,0.776942372322,-0.998161792755,0.0,7,0,10.0,10.0,10.0,10.0,0.0,0.0,0.0,0.0,,,,0.0339110828936,0.0668745711446,0.00518328743055,0,0,0.0,0.0,0.300000011921,0,77,,,,,,,,,,,,,,,,,,,,,,,,,,,,,,,,,11.3310470581,11.3997478485,-1.0,-1.0,,,,,,,,,,,,,,,,,,,,,,,,,,,,,,,,,,,,,,,,,,,,,,,,,,,,,,,,,,,,,,,,,,,,,,,,,,,,,,,,,,,,,,,,,,,,,,,,,,,,,,,1403129383,PX4FMU_V1,251760679a4bed86fdb10746062fde2cc23e460f,test,305419904.0
-0.00684118550271,-0.013431542553,-1.51566636562,-0.0343496985734,-0.029378991574,-0.0171808376908,-0.550904870033,0.378895699978,-9.93876838684,0.0,0.0,-1.51060402393,0.0,-0.550904870033,0.378895699978,-9.93876838684,-0.0454840287566,-0.0386324822903,0.016539953649,0.00987573340535,0.116050444543,0.370161414146,1018.94995117,-47.33984375,36.2399978638,0.0,0.0,4.52570676804,4.38751649857,-3.56410861015,0.264695763588,-0.0381916128099,0.138703480363,-0.111945971847,-0.0228054020554,0.0,0.0,0.0,10,1,0,20.058795929,7.99550819397,,,,,,,,,,,,,,,,,,,,0.00891196355224,0.0125498380512,0.00334336538799,0.0,0,2,0,0.799831390381,0,1,0.0,-0.0,0.0,0.0272277221084,0.99816006422,0.776942372322,-0.998161792755,0.0,7,0,10.0,10.0,10.0,10.0,0.0,0.0,0.0,0.0,,,,0.0342038683593,0.0671582296491,0.00510826334357,0,0,0.0,0.0,0.300000011921,0,77,,,,,,,,,,,,,,,,,,,,,,,,,,,,,,,,,11.3310470581,11.3996105194,-1.0,-1.0,,,,,,,,,,,,,,,,,,,,,,,,,,,,,,,,,,,,,,,,,,,,,,,,,,,,,,,,,,,,,,,,,,,,,,,,,,,,,,,,,,,,,,,,,,,,,,,,,,,,,,,1403151884,PX4FMU_V1,251760679a4bed86fdb10746062fde2cc23e460f,test,305419904.0
-0.00680489046499,-0.0134019069374,-1.51584470272,0.0277221426368,0.0276891961694,0.0247140880674,-0.0274091959,-0.181143715978,-9.75089454651,0.0,0.0,-1.51060402393,0.0,-0.0274091959,-0.181143715978,-9.75089454651,0.0466195680201,0.0464527904987,0.00359584856778,0.00804098043591,0.172642409801,0.362150430679,1018.9699707,-47.505569458,36.2299995422,0.0,0.0,4.52570676804,4.38751649857,-3.56409692764,0.264695763588,-0.0381916128099,0.138703480363,-0.111945971847,-0.0244842525572,0.0,0.0,0.0,10,1,0,20.058795929,7.9956278801,,,,,,,,,,,,,,,,,,,,0.000819034641609,0.00511170830578,-0.00291415979154,0.0,0,2,0,0.799831390381,0,1,0.0,-0.0,0.0,0.0272277221084,0.99816006422,0.776942372322,-0.998161792755,0.0,7,0,10.0,10.0,10.0,10.0,0.0,0.0,0.0,0.0,,,,0.0340224094689,0.0670100301504,0.00528635643423,-9,14,0.0875944793224,-0.128679051995,0.300000011921,43,77,,,,,,,,,,,,,,,,,,,,,,,,,,,,,,,,,11.3226661682,11.3994646072,-1.0,-1.0,,,,,,,,,,,,,,,,,,,,,,,,,,,,,,,,,,,,,,,,,,,,,,,,,,,,,,,,,,,,,,,,,,,,,,,,,,,,,,,,,,,,,,,,,,,,,,,,,,,,,,,1403172699,PX4FMU_V1,251760679a4bed86fdb10746062fde2cc23e460f,test,305419904.0
-0.0066613308154,-0.0132726021111,-1.51546657085,-0.0235512275249,-0.0213149785995,-0.0397709496319,-0.116043888032,0.07972176373,-9.86097335815,0.0,0.0,-1.51060402393,0.0,-0.116043888032,0.07972176373,-9.86097335815,-0.051590487361,-0.0460134968162,-0.0306098721921,0.0199669245631,0.116050444543,0.367491066456,1018.94000244,-47.256980896,36.2299995422,0.0,0.0,4.52570676804,4.38751649857,-3.56759595871,0.264695763588,-0.0381916128099,0.138703480363,-0.111945971847,-0.02412834391,0.0,0.0,0.0,10,1,0,20.058795929,7.99574899673,,,,,,,,,,,,,,,,,,,,0.00739126978442,0.011398200877,0.00670165754855,0.0,0,2,0,0.799831390381,0,1,0.0,-0.0,0.0,0.0247524753213,1.0,0.776942372322,-0.998161792755,0.0,7,0,10.0,10.0,10.0,10.0,0.0,0.0,0.0,0.0,,,,0.03330469504,0.066363491118,0.0049067675136,0,0,0.0,0.0,0.300000011921,0,77,,,,,,,,,,,,,,,,,,,,,,,,,,,,,,,,,11.3394289017,11.3993358612,-1.0,-1.0,,,,,,,,,,,,,,,,,,,,,,,,,,,,,,,,,,,,,,,,,,,,,,,,,,,,,,,,,,,,,,,,,,,,,,,,,,,,,,,,,,,,,,,,,,,,,,,,,,,,,,,1403194149,PX4FMU_V1,251760679a4bed86fdb10746062fde2cc23e460f,test,305419904.0
-0.00679662916809,-0.0134229054675,-1.5159368515,0.0269996393472,0.0258658826351,0.0289885513484,-0.01559787523,-0.140084058046,-9.81265640259,0.0,0.0,-1.51060402393,0.0,-0.01559787523,-0.140084058046,-9.81265640259,0.0467948652804,0.0444011464715,0.00118515756913,0.016297403723,0.183461472392,0.364820748568,1019.0199585,-47.9198760986,36.219997406,0.0,0.0,4.52570676804,4.38751649857,-3.56860375404,0.264695763588,-0.0381916128099,0.138703480363,-0.111945971847,-0.0270506069064,0.0,0.0,0.0,10,1,0,20.058795929,7.9958691597,,,,,,,,,,,,,,,,,,,,0.000907589797862,0.00536238914356,-0.00354150845669,0.0,0,2,0,0.799831390381,0,1,0.0,-0.0,0.0,0.0272277221084,0.99816006422,0.776942372322,-0.998161792755,0.0,7,0,10.0,10.0,10.0,10.0,0.0,0.0,0.0,0.0,,,,0.0339810997248,0.0671150311828,0.00537849636748,0,0,0.0,0.0,0.300000011921,0,77,,,,,,,,,,,,,,,,,,,,,,,,,,,,,,,,,11.3226661682,11.3991832733,-1.0,-1.0,,,,,,,,,,,,,,,,,,,,,,,,,,,,,,,,,,,,,,,,,,,,,,,,,,,,,,,,,,,,,,,,,,,,,,,,,,,,,,,,,,,,,,,,,,,,,,,,,,,,,,,1403216391,PX4FMU_V1,251760679a4bed86fdb10746062fde2cc23e460f,test,305419904.0
-0.00662285322323,-0.0132725154981,-1.51591336727,-0.0232366546988,-0.0191955137998,-0.0398299992085,-0.120073363185,0.0979809612036,-9.86839866638,0.0,0.0,-1.51060402393,0.0,-0.120073363185,0.0979809612036,-9.86839866638,-0.0519671142101,-0.0434115603566,-0.0285747423768,0.00528882909566,0.124372787774,0.372831702232,1018.9699707,-47.505569458,36.219997406,0.0,0.0,4.52570676804,4.38751649857,-3.56959414482,0.264695763588,-0.0381916128099,0.138703480363,-0.111945971847,-0.0252732858062,0.0,0.0,0.0,10,1,0,20.058795929,7.99592828751,,,,,,,,,,,,,,,,,,,,0.00732536707073,0.0111226169392,0.00677749887109,0.0,0,2,0,0.799831390381,0,1,0.0,-0.0,0.0,0.0247524753213,0.99816006422,0.776942372322,-0.998161792755,0.0,7,0,10.0,10.0,10.0,10.0,0.0,0.0,0.0,0.0,,,,0.0331123247743,0.066363081336,0.00535332318395,3,22,-0.0353571437299,-0.200117513537,0.300000011921,55,77,,,,,,,,,,,,,,,,,,,,,,,,,,,,,,,,,11.3310470581,11.3991155624,-1.0,-1.0,,,,,,,,,,,,,,,,,,,,,,,,,,,,,,,,,,,,,,,,,,,,,,,,,,,,,,,,,,,,,,,,,,,,,,,,,,,,,,,,,,,,,,,,,,,,,,,,,,,,,,,1403237383,PX4FMU_V1,251760679a4bed86fdb10746062fde2cc23e460f,test,305419904.0
-0.00694679934531,-0.0135701652616,-1.51518988609,0.0133331408724,0.0131646199152,0.0368903912604,-0.28088375926,0.205794245005,-9.82523822784,0.0,0.0,-1.51060402393,0.0,-0.28088375926,0.205794245005,-9.82523822784,0.0423793271184,0.0426836647093,0.0396054722369,0.0273059643805,0.174306884408,0.349688917398,1018.9699707,-47.505569458,36.219997406,0.0,0.0,4.52570676804,4.38751649857,-3.57159328461,0.264695763588,-0.0381916128099,0.138703480363,-0.111945971847,-0.0283197890967,0.0,0.0,0.0,10,1,0,20.058795929,7.99604892731,,,,,,,,,,,,,,,,,,,,0.00278183491901,0.00710927927867,-0.00483861472458,0.0,0,2,0,0.799831390381,0,1,0.0,-0.0,0.0,0.0247524753213,0.99816006422,0.779448628426,-0.998161792755,0.0,7,0,10.0,10.0,10.0,10.0,0.0,0.0,0.0,0.0,,,,0.0347318723798,0.0678513869643,0.00463296286762,-5,0,0.0400187596679,0.00401640683413,0.300000011921,47,77,,,,,,,,,,,,,,,,,,,,,,,,,,,,,,,,,11.3310470581,11.3989715576,-1.0,-1.0,,,,,,,,,,,,,,,,,,,,,,,,,,,,,,,,,,,,,,,,,,,,,,,,,,,,,,,,,,,,,,,,,,,,,,,,,,,,,,,,,,,,,,,,,,,,,,,,,,,,,,,1403258606,PX4FMU_V1,251760679a4bed86fdb10746062fde2cc23e460f,test,305419904.0
-0.0066243656911,-0.0132538396865,-1.51602256298,-0.0233166962862,-0.0196254942566,-0.0492699891329,-0.0362757779658,0.0421368777752,-9.81078529358,0.0,0.0,-1.51060402393,0.0,-0.0362757779658,0.0421368777752,-9.81078529358,-0.0538397431374,-0.0467940978706,-0.054610889405,0.0144626367837,0.159326657653,0.366600960493,1019.00994873,-47.8370170593,36.219997406,0.0,0.0,4.52570676804,4.38751649857,-3.56959056854,0.264695763588,-0.0381916128099,0.138703480363,-0.111945971847,-0.0253273267299,0.0,0.0,0.0,10,1,0,20.058795929,7.99617052078,,,,,,,,,,,,,,,,,,,,0.00733675668016,0.0111663732678,0.00820987299085,0.0,0,2,0,0.799831390381,0,1,0.0,-0.0,0.0,0.0272277221084,0.99816006422,0.776942372322,-0.998161792755,0.0,7,0,10.0,10.0,10.0,10.0,0.0,0.0,0.0,0.0,,,,0.0331198945642,0.0662696883082,0.00546249886975,0,0,0.0,0.0,0.300000011921,0,77,,,,,,,,,,,,,,,,,,,,,,,,,,,,,,,,,11.3394289017,11.3988447189,-1.0,-1.0,,,,,,,,,,,,,,,,,,,,,,,,,,,,,,,,,,,,,,,,,,,,,,,,,,,,,,,,,,,,,,,,,,,,,,,,,,,,,,,,,,,,,,,,,,,,,,,,,,,,,,,1403280183,PX4FMU_V1,251760679a4bed86fdb10746062fde2cc23e460f,test,305419904.0
-0.00702122272924,-0.0136327706277,-1.5166233778,0.0100214434788,0.00819982029498,0.0396699681878,-0.473031818867,0.267936527729,-9.91792297363,0.0,0.0,-1.51060402393,0.0,-0.473031818867,0.267936527729,-9.91792297363,0.0430621653795,0.0397672429681,0.0461498312652,0.0355623885989,0.161823362112,0.352359265089,1018.95996094,-47.422706604,36.219997406,0.0,0.0,4.52570676804,4.38751649857,-3.57091403008,0.264695763588,-0.0381916128099,0.138703480363,-0.111945971847,-0.0284157730639,0.0,0.0,0.0,10,1,0,20.058795929,7.99629020691,,,,,,,,,,,,,,,,,,,,0.00326072284952,0.00779539532959,-0.00504040438682,0.0,0,2,0,0.799831390381,0,1,0.0,-0.0,0.0,0.0247524753213,1.0,0.776942372322,-0.998161792755,0.0,7,0,10.0,10.0,10.0,10.0,0.0,0.0,0.0,0.0,,,,0.0351039282978,0.0681644007564,0.00606727320701,0,0,0.0,0.0,0.300000011921,0,77,,,,,,,,,,,,,,,,,,,,,,,,,,,,,,,,,11.3226661682,11.3987007141,-1.0,-1.0,,,,,,,,,,,,,,,,,,,,,,,,,,,,,,,,,,,,,,,,,,,,,,,,,,,,,,,,,,,,,,,,,,,,,,,,,,,,,,,,,,,,,,,,,,,,,,,,,,,,,,,1403301369,PX4FMU_V1,251760679a4bed86fdb10746062fde2cc23e460f,test,305419904.0
-0.00651334924623,-0.013177040033,-1.51475298405,-0.000863428402226,-0.00159561925102,-0.0347807072103,0.226070672274,-0.289460331202,-9.65508174896,0.0,0.0,-1.51060402393,0.0,0.226070672274,-0.289460331202,-9.65508174896,-0.0353032946587,-0.0328141860664,-0.0575407594442,0.0328102372587,0.151836544275,0.353249371052,1019.0,-47.75415802,36.2099990845,0.0,0.0,4.52570676804,4.38751649857,-3.57246375084,0.264695763588,-0.0381916128099,0.138703480363,-0.111945971847,-0.0285237021744,0.0,0.0,0.0,10,1,0,20.058795929,7.99635124207,,,,,,,,,,,,,,,,,,,,0.00434567779303,0.00877256691456,0.00584588944912,0.0,0,2,0,0.799831390381,0,1,0.0,-0.0,0.0,0.0272277221084,0.99816006422,0.776942372322,-0.998161792755,0.0,7,0,10.0,10.0,10.0,10.0,0.0,0.0,0.0,0.0,,,,0.0325648635626,0.0658856704831,0.0041918870993,0,0,0.0,0.0,0.300000011921,0,77,,,,,,,,,,,,,,,,,,,,,,,,,,,,,,,,,11.3310470581,11.3986330032,-1.0,-1.0,,,,,,,,,,,,,,,,,,,,,,,,,,,,,,,,,,,,,,,,,,,,,,,,,,,,,,,,,,,,,,,,,,,,,,,,,,,,,,,,,,,,,,,,,,,,,,,,,,,,,,,1403322318,PX4FMU_V1,251760679a4bed86fdb10746062fde2cc23e460f,test,305419904.0
-0.00695154396817,-0.0135979503393,-1.51600813866,0.0110933817923,0.0100833829492,0.0377486385405,-0.425561100245,0.199392303824,-9.78353786469,0.0,0.0,-1.51060402393,0.0,-0.425561100245,0.199392303824,-9.78353786469,0.0399518236518,0.0388451889157,0.0506606064737,0.0346450060606,0.14517866075,0.356809794903,1018.98999023,-47.671295166,36.2099990845,0.0,0.0,4.52570676804,4.38751649857,-3.57047319412,0.264695763588,-0.0381916128099,0.138703480363,-0.111945971847,-0.0280538275838,0.0,0.0,0.0,10,1,0,20.058795929,7.99647188187,,,,,,,,,,,,,,,,,,,,0.00307608558796,0.00752789806575,-0.00484458170831,0.0,0,2,0,0.799042999744,0,1,0.0,-0.0,0.0,0.0247524753213,0.99816006422,0.779448628426,-0.998161792755,0.0,7,0,10.0,10.0,10.0,10.0,0.0,0.0,0.0,0.0,,,,0.0347555801272,0.067990295589,0.00545142963529,3,0,-0.0331037566066,-0.00468064285815,0.300000011921,75,77,,,,,,,,,,,,,,,,,,,,,,,,,,,,,,,,,11.3310470581,11.3984975815,-1.0,-1.0,,,,,,,,,,,,,,,,,,,,,,,,,,,,,,,,,,,,,,,,,,,,,,,,,,,,,,,,,,,,,,,,,,,,,,,,,,,,,,,,,,,,,,,,,,,,,,,,,,,,,,,1403344645,PX4FMU_V1,251760679a4bed86fdb10746062fde2cc23e460f,test,305419904.0
-0.00651808734983,-0.0131978858262,-1.51490831375,-0.00392879778519,-0.00295466533862,-0.0348524339497,0.15811663866,-0.260213851929,-9.75192928314,0.0,0.0,-1.51060402393,0.0,0.15811663866,-0.260213851929,-9.75192928314,-0.034333974123,-0.0298209041357,-0.0624425895512,0.0364797748625,0.14517866075,0.34612852335,1018.98999023,-47.671295166,36.2099990845,0.0,0.0,4.52570676804,4.38751649857,-3.57001113892,0.264695763588,-0.0381916128099,0.138703480363,-0.111945971847,-0.0264838952571,0.0,0.0,0.0,10,1,0,20.058795929,7.99659156799,,,,,,,,,,,,,,,,,,,,0.00474725384265,0.00896279234439,0.00587996048853,0.0,0,2,0,0.799042999744,0,1,0.0,-0.0,0.0,0.0247524753213,0.99816006422,0.779448628426,-0.998161792755,0.0,7,0,10.0,10.0,10.0,10.0,0.0,0.0,0.0,0.0,,,,0.0325885377824,0.0659898966551,0.00434730155393,4,-1,-0.0377960950136,0.0112542137504,0.300000011921,0,77,,,,,,,,,,,,,,,,,,,,,,,,,,,,,,,,,11.3310470581,11.3983621597,-1.0,-1.0,,,,,,,,,,,,,,,,,,,,,,,,,,,,,,,,,,,,,,,,,,,,,,,,,,,,,,,,,,,,,,,,,,,,,,,,,,,,,,,,,,,,,,,,,,,,,,,,,,,,,,,1403365307,PX4FMU_V1,251760679a4bed86fdb10746062fde2cc23e460f,test,305419904.0
-0.00705796852708,-0.0136750964448,-1.51649916172,-0.00727893877774,-0.0079209394753,0.0263721235096,-0.476305395365,0.482485592365,-9.85078239441,0.0,0.0,-1.51060402393,0.0,-0.476305395365,0.482485592365,-9.85078239441,0.0228361859918,0.0162903610617,0.0646179243922,0.00253669242375,0.1584944278,0.350579053164,1018.95996094,-47.422706604,36.2000007629,0.0,0.0,4.52570676804,4.38751649857,-3.57002234459,0.264695763588,-0.0381916128099,0.138703480363,-0.111945971847,-0.0283881742507,0.0,0.0,0.0,10,1,0,20.058795929,7.99671173096,,,,,,,,,,,,,,,,,,,,0.0055336561054,0.0099186077714,-0.00306431856006,0.0,0,2,0,0.799042999744,0,1,0.0,-0.0,0.0,0.0272277221084,0.99816006422,0.776942372322,-0.998161792755,0.0,7,0,10.0,10.0,10.0,10.0,0.0,0.0,0.0,0.0,,,,0.0352876484394,0.0683760493994,0.00594333326444,15,-25,-0.140318050981,0.225412264466,0.300000011921,47,77,,,,,,,,,,,,,,,,,,,,,,,,,,,,,,,,,11.3310470581,11.398226738,-1.0,-1.0,,,,,,,,,,,,,,,,,,,,,,,,,,,,,,,,,,,,,,,,,,,,,,,,,,,,,,,,,,,,,,,,,,,,,,,,,,,,,,,,,,,,,,,,,,,,,,,,,,,,,,,1403386598,PX4FMU_V1,251760679a4bed86fdb10746062fde2cc23e460f,test,305419904.0
-0.00655219843611,-0.0132211055607,-1.51441764832,-0.000946558313444,9.75856964942e-05,-0.0334730409086,0.264194220304,-0.298887193203,-9.72317790985,0.0,0.0,-1.51060402393,0.0,0.264194220304,-0.298887193203,-9.72317790985,-0.029208842665,-0.0260082446039,-0.0614286921918,0.0364797748625,0.117714904249,0.364820748568,1018.95996094,-47.422706604,36.2000007629,0.0,0.0,4.52570676804,4.38751649857,-3.57306528091,0.264695763588,-0.0381916128099,0.138703480363,-0.111945971847,-0.0284590832889,0.0,0.0,0.0,10,1,0,20.058795929,7.99683237076,,,,,,,,,,,,,,,,,,,,0.00438173301518,0.00858109258115,0.00559949409217,0.0,0,2,0,0.799042999744,0,1,0.0,-0.0,0.0,0.0272277221084,0.99816006422,0.776942372322,-0.998161792755,0.0,7,0,10.0,10.0,10.0,10.0,0.0,0.0,0.0,0.0,,,,0.0327590815723,0.0661059916019,0.00385691830888,0,0,0.0,0.0,0.300000011921,0,77,,,,,,,,,,,,,,,,,,,,,,,,,,,,,,,,,11.3310470581,11.3980932236,-1.0,-1.0,,,,,,,,,,,,,,,,,,,,,,,,,,,,,,,,,,,,,,,,,,,,,,,,,,,,,,,,,,,,,,,,,,,,,,,,,,,,,,,,,,,,,,,,,,,,,,,,,,,,,,,1403408783,PX4FMU_V1,251760679a4bed86fdb10746062fde2cc23e460f,test,305419904.0
-0.00703816954046,-0.0136542897671,-1.51710367203,-0.00546820368618,-0.00588237447664,0.0180717390031,-0.479277670383,0.505670666695,-9.91602993011,0.0,0.0,-1.51060402393,0.0,-0.479277670383,0.505670666695,-9.91602993011,0.0245740748942,0.0176818929613,0.0554770193994,-0.00113282771781,0.155165478587,0.373721808195,1018.98999023,-47.671295166,36.2000007629,0.0,0.0,4.52570676804,4.38751649857,-3.57408022881,0.264695763588,-0.0381916128099,0.138703480363,-0.111945971847,-0.0292438082397,0.0,0.0,0.0,10,1,0,20.058795929,7.99689292908,,,,,,,,,,,,,,,,,,,,0.00528539298102,0.00964007154107,-0.00172861164901,0.0,0,2,0,0.799042999744,0,1,0.0,-0.0,0.0,0.0247524753213,0.99816006422,0.779448628426,-0.998161792755,0.0,7,0,10.0,10.0,10.0,10.0,0.0,0.0,0.0,0.0,,,,0.0351886674762,0.0682720243931,0.00654766196385,0,0,0.0,0.0,0.300000011921,0,77,,,,,,,,,,,,,,,,,,,,,,,,,,,,,,,,,11.3310470581,11.3980264664,-1.0,-1.0,,,,,,,,,,,,,,,,,,,,,,,,,,,,,,,,,,,,,,,,,,,,,,,,,,,,,,,,,,,,,,,,,,,,,,,,,,,,,,,,,,,,,,,,,,,,,,,,,,,,,,,1403430158,PX4FMU_V1,251760679a4bed86fdb10746062fde2cc23e460f,test,305419904.0
-0.00648233341053,-0.0131827872247,-1.51682734489,0.0153920399025,0.0146205266938,-0.00564942136407,0.359922945499,-0.503887951374,-9.60769557953,0.0,0.0,-1.51060402393,0.0,0.359922945499,-0.503887951374,-9.60769557953,-0.00759266782552,-0.00722555350512,-0.045045401901,-0.0038849641569,0.177635833621,0.367491066456,1018.95996094,-47.422706604,36.2000007629,0.0,0.0,4.52570676804,4.38751649857,-3.57414197922,0.264695763588,-0.0381916128099,0.138703480363,-0.111945971847,-0.030022168532,0.0,0.0,0.0,10,1,0,20.058795929,7.99701356888,,,,,,,,,,,,,,,,,,,,0.00221230718307,0.00666820304468,0.00178732920904,0.0,0,2,0,0.799042999744,0,1,0.0,-0.0,0.0,0.0247524753213,1.0,0.776942372322,-0.998161792755,0.0,7,0,10.0,10.0,10.0,10.0,0.0,0.0,0.0,0.0,,,,0.032409787178,0.0659143999219,0.00626610592008,0,0,0.0,0.0,0.300000011921,0,77,,,,,,,,,,,,,,,,,,,,,,,,,,,,,,,,,11.3226661682,11.3978843689,-1.0,-1.0,,,,,,,,,,,,,,,,,,,,,,,,,,,,,,,,,,,,,,,,,,,,,,,,,,,,,,,,,,,,,,,,,,,,,,,,,,,,,,,,,,,,,,,,,,,,,,,,,,,,,,,1403451174,PX4FMU_V1,251760679a4bed86fdb10746062fde2cc23e460f,test,305419904.0
-0.0070540565066,-0.0136497952044,-1.51433515549,-0.0108059374616,-0.00888213794678,0.0120242554694,-0.506753146648,0.589196681976,-9.88075733185,0.0,0.0,-1.51060402393,0.0,-0.506753146648,0.589196681976,-9.88075733185,0.0183421038091,0.0129000423476,0.0553508587182,0.0273059643805,0.121043846011,0.361260324717,1019.0199585,-47.9198760986,36.2000007629,0.0,0.0,4.52570676804,4.38751649857,-3.5771484375,0.264695763588,-0.0381916128099,0.138703480363,-0.111945971847,-0.0309049021453,0.0,0.0,0.0,10,1,0,20.058795929,7.997133255,,,,,,,,,,,,,,,,,,,,0.00598962372169,0.0100271143019,-0.00123673363123,0.0,0,2,0,0.799042999744,0,1,0.0,-0.0,0.0,0.0247524753213,1.0,0.776942372322,-0.998161792755,0.0,7,0,10.0,10.0,10.0,10.0,0.0,0.0,0.0,0.0,,,,0.0352680906653,0.0682495161891,0.00377936428413,0,0,0.0,0.0,0.300000011921,0,77,,,,,,,,,,,,,,,,,,,,,,,,,,,,,,,,,11.3226661682,11.3977422714,-1.0,-1.0,,,,,,,,,,,,,,,,,,,,,,,,,,,,,,,,,,,,,,,,,,,,,,,,,,,,,,,,,,,,,,,,,,,,,,,,,,,,,,,,,,,,,,,,,,,,,,,,,,,,,,,1403473412,PX4FMU_V1,251760679a4bed86fdb10746062fde2cc23e460f,test,305419904.0
-0.00649337098002,-0.0131807252765,-1.51463425159,0.0180027633905,0.0167543981224,-0.00523274019361,0.419793725014,-0.525254487991,-9.66662597656,0.0,0.0,-1.51060402393,0.0,0.419793725014,-0.525254487991,-9.66662597656,-0.00269648968242,-0.000646015745588,-0.0473432391882,0.00161930872127,0.13685631752,0.358590006828,1018.97998047,-47.588432312,36.2000007629,0.0,0.0,4.52570676804,4.38751649857,-3.57618093491,0.264695763588,-0.0381916128099,0.138703480363,-0.111945971847,-0.0293985046446,0.0,0.0,0.0,10,1,0,20.058795929,7.99725389481,,,,,,,,,,,,,,,,,,,,0.00188008625992,0.00638945680112,0.00139586743899,0.0,0,2,0,0.799042999744,0,1,0.0,-0.0,0.0,0.0247524753213,1.0,0.776942372322,-0.998161792755,0.0,7,0,10.0,10.0,10.0,10.0,0.0,0.0,0.0,0.0,,,,0.0324649661779,0.0659040659666,0.00407304242253,0,0,0.0,0.0,0.300000011921,0,77,,,,,,,,,,,,,,,,,,,,,,,,,,,,,,,,,11.3310470581,11.397608757,-1.0,-1.0,,,,,,,,,,,,,,,,,,,,,,,,,,,,,,,,,,,,,,,,,,,,,,,,,,,,,,,,,,,,,,,,,,,,,,,,,,,,,,,,,,,,,,,,,,,,,,,,,,,,,,,1403494445,PX4FMU_V1,251760679a4bed86fdb10746062fde2cc23e460f,test,305419904.0
-0.00707477517426,-0.0136730335653,-1.51682674885,-0.0148085653782,-0.0123302908614,0.00559855997562,-0.541384935379,0.612785220146,-9.9374666214,0.0,0.0,-1.51060402393,0.0,-0.541384935379,0.612785220146,-9.9374666214,0.0124085117131,0.00989591609687,0.0445431470871,-0.0167282931507,0.18595816195,0.355919659138,1019.0,-47.75415802,36.2000007629,0.0,0.0,4.52570676804,4.38751649857,-3.57550644875,0.264695763588,-0.0381916128099,0.138703480363,-0.111945971847,-0.0299345757812,0.0,0.0,0.0,10,1,0,20.058795929,7.99737453461,,,,,,,,,,,,,,,,,,,,0.00652343127877,0.010490485467,0.000100873417978,0.0,0,2,0,0.799042999744,0,1,0.0,-0.0,0.0,0.0247524753213,1.0,0.776942372322,-0.998161792755,0.0,7,0,10.0,10.0,10.0,10.0,0.0,0.0,0.0,0.0,,,,0.0353716760874,0.068365752697,0.0062710493803,0,0,0.0,0.0,0.300000011921,0,77,,,,,,,,,,,,,,,,,,,,,,,,,,,,,,,,,11.3310470581,11.3974666595,-1.0,-1.0,,,,,,,,,,,,,,,,,,,,,,,,,,,,,,,,,,,,,,,,,,,,,,,,,,,,,,,,,,,,,,,,,,,,,,,,,,,,,,,,,,,,,,,,,,,,,,,,,,,,,,,1403517303,PX4FMU_V1,251760679a4bed86fdb10746062fde2cc23e460f,test,305419904.0
-0.00653465138748,-0.0132027110085,-1.51406991482,0.0199244022369,0.019471205771,0.00550113432109,0.286668032408,-0.51324903965,-9.67713546753,0.0,0.0,-1.51060402393,0.0,0.286668032408,-0.51324903965,-9.67713546753,0.00201542582363,0.00277420505881,-0.034542452544,0.000701939861756,0.124372787774,0.370161414146,1019.03997803,-48.0855941772,36.1800003052,0.0,0.0,4.52570676804,4.38751649857,-3.57369375229,0.264695763588,-0.0381916128099,0.138703480363,-0.111945971847,-0.0290530156344,0.0,0.0,0.0,10,1,0,20.058795929,7.99743461609,,,,,,,,,,,,,,,,,,,,0.00165710423607,0.00605056574568,-0.000298807397485,0.0,0,2,0,0.799042999744,0,1,0.0,-0.0,0.0,0.0247524753213,0.99816006422,0.779448628426,-0.998161792755,0.0,7,0,10.0,10.0,10.0,10.0,0.0,0.0,0.0,0.0,,,,0.0326713584363,0.0660140216351,0.00350908515975,0,0,0.0,0.0,0.300000011921,0,77,,,,,,,,,,,,,,,,,,,,,,,,,,,,,,,,,11.3310470581,11.3973999023,-1.0,-1.0,,,,,,,,,,,,,,,,,,,,,,,,,,,,,,,,,,,,,,,,,,,,,,,,,,,,,,,,,,,,,,,,,,,,,,,,,,,,,,,,,,,,,,,,,,,,,,,,,,,,,,,1403538863,PX4FMU_V1,251760679a4bed86fdb10746062fde2cc23e460f,test,305419904.0
-0.0070489263162,-0.013670024462,-1.51295936108,-0.0170761682093,-0.0140056665987,0.00186752527952,-0.543243467808,0.619440674782,-9.94007587433,0.0,0.0,-1.51060402393,0.0,-0.543243467808,0.619440674782,-9.94007587433,0.00554721150547,0.00600146502256,0.0418174080551,0.0218016766012,0.0944123342633,0.371051490307,1019.02996826,-48.0027351379,36.1800003052,0.0,0.0,4.52570676804,4.38751649857,-3.57135510445,0.264695763588,-0.0381916128099,0.138703480363,-0.111945971847,-0.026770979166,0.0,0.0,0.0,10,1,0,20.058795929,7.99755573273,,,,,,,,,,,,,,,,,,,,0.00680141802877,0.0107063250616,8.04118608357e-05,0.0,0,2,0,0.798227310181,0,1,0.0,-0.0,0.0,0.0247524753213,0.99816006422,0.779448628426,-0.998161792755,0.0,7,0,10.0,10.0,10.0,10.0,0.0,0.0,0.0,0.0,,,,0.0352424345911,0.0683506801724,0.00240360433236,-2,-12,0.0262500010431,0.108049295843,0.300000011921,47,77,,,,,,,,,,,,,,,,,,,,,,,,,,,,,,,,,11.3226661682,11.3972673416,-1.0,-1.0,,,,,,,,,,,,,,,,,,,,,,,,,,,,,,,,,,,,,,,,,,,,,,,,,,,,,,,,,,,,,,,,,,,,,,,,,,,,,,,,,,,,,,,,,,,,,,,,,,,,,,,1403560767,PX4FMU_V1,251760679a4bed86fdb10746062fde2cc23e460f,test,305419904.0
-0.00653393287212,-0.0132459541783,-1.51699233055,0.0225271005183,0.0203278250992,0.0136089324951,0.255285620689,-0.512839794159,-9.68237495422,0.0,0.0,-1.51060402393,0.0,0.255285620689,-0.512839794159,-9.68237495422,0.00761090870947,0.0074687032029,-0.0205440670252,-0.0286542363465,0.155997723341,0.36571085453,1019.0199585,-47.9198760986,36.1699981689,0.0,0.0,4.52570676804,4.38751649857,-3.56738042831,0.264695763588,-0.0381916128099,0.138703480363,-0.111945971847,-0.0255937818438,0.0,0.0,0.0,10,1,0,20.058795929,7.99767589569,,,,,,,,,,,,,,,,,,,,0.00131828512531,0.0059673152864,-0.00107659678906,0.0,0,2,0,0.798227310181,0,1,0.0,-0.0,0.0,0.0272277221084,0.99816006422,0.776942372322,-0.998161792755,0.0,7,0,10.0,10.0,10.0,10.0,0.0,0.0,0.0,0.0,,,,0.0326677560806,0.0662302523851,0.00643162056804,0,0,0.0,0.0,0.300000011921,0,77,,,,,,,,,,,,,,,,,,,,,,,,,,,,,,,,,11.3226661682,11.3971185684,-1.0,-1.0,,,,,,,,,,,,,,,,,,,,,,,,,,,,,,,,,,,,,,,,,,,,,,,,,,,,,,,,,,,,,,,,,,,,,,,,,,,,,,,,,,,,,,,,,,,,,,,,,,,,,,,1403581269,PX4FMU_V1,251760679a4bed86fdb10746062fde2cc23e460f,test,305419904.0
-0.00694915512577,-0.0136065874249,-1.51513755322,-0.0284009464085,-0.0236126594245,-0.0278839021921,-0.616580784321,0.541758835316,-9.90204906464,0.0,0.0,-1.51060402393,0.0,-0.616580784321,0.541758835316,-9.90204906464,-0.0234855562449,-0.0192816462368,0.00447107991204,0.0410666614771,0.14517866075,0.359480112791,1019.0,-47.75415802,36.1699981689,0.0,0.0,4.52570676804,4.38751649857,-3.56537556648,0.264695763588,-0.0381916128099,0.138703480363,-0.111945971847,-0.0238277353346,0.0,0.0,0.0,10,1,0,20.058795929,7.99779605865,,,,,,,,,,,,,,,,,,,,0.00820879545063,0.0119139989838,0.00486970413476,0.0,0,2,0,0.798227310181,0,1,0.0,-0.0,0.0,0.0247524753213,1.0,0.776942372322,-0.998161792755,0.0,7,0,10.0,10.0,10.0,10.0,0.0,0.0,0.0,0.0,,,,0.0347436368465,0.0680334940553,0.00458079343662,0,0,0.0,0.0,0.300000011921,0,77,,,,,,,,,,,,,,,,,,,,,,,,,,,,,,,,,11.3310470581,11.3969869614,-1.0,-1.0,,,,,,,,,,,,,,,,,,,,,,,,,,,,,,,,,,,,,,,,,,,,,,,,,,,,,,,,,,,,,,,,,,,,,,,,,,,,,,,,,,,,,,,,,,,,,,,,,,,,,,,1403602580,PX4FMU_V1,251760679a4bed86fdb10746062fde2cc23e460f,test,305419904.0
-0.00656573567539,-0.0132698873058,-1.5155633688,0.0220089051872,0.0212547350675,0.0137578118593,0.161199331284,-0.489162743092,-9.76103210449,0.0,0.0,-1.51060402393,0.0,0.161199331284,-0.489162743092,-9.76103210449,0.00914536044002,0.0101156532764,-0.0216059088707,0.0337276235223,0.117714904249,0.371051490307,1018.97998047,-47.588432312,36.1699981689,0.0,0.0,4.52570676804,4.38751649857,-3.56605005264,0.264695763588,-0.0381916128099,0.138703480363,-0.111945971847,-0.0244457181543,0.0,0.0,0.0,10,1,0,20.058795929,7.99791622162,,,,,,,,,,,,,,,,,,,,0.00140632002149,0.00586237246171,-0.00131324143149,0.0,0,2,0,0.798227310181,0,1,0.0,-0.0,0.0,0.0272277221084,0.99816006422,0.776942372322,-0.998161792755,0.0,7,0,10.0,10.0,10.0,10.0,0.0,0.0,0.0,0.0,,,,0.0328267514706,0.0663499087095,0.00500286975875,-8,-26,0.0760051459074,0.234126463532,0.300000011921,43,77,,,,,,,,,,,,,,,,,,,,,,,,,,,,,,,,,11.3310470581,11.3968553543,-1.0,-1.0,,,,,,,,,,,,,,,,,,,,,,,,,,,,,,,,,,,,,,,,,,,,,,,,,,,,,,,,,,,,,,,,,,,,,,,,,,,,,,,,,,,,,,,,,,,,,,,,,,,,,,,1403625214,PX4FMU_V1,251760679a4bed86fdb10746062fde2cc23e460f,test,305419904.0
-0.00695975404233,-0.0135914701968,-1.51891219616,-0.0279796812683,-0.0216365102679,-0.0305384770036,-0.612418115139,0.440162956715,-9.89012622833,0.0,0.0,-1.51060402393,0.0,-0.612418115139,0.440162956715,-9.89012622833,-0.022866550833,-0.0163676738739,-0.00644940743223,-0.0194804295897,0.162655591965,0.364820748568,1018.9699707,-47.505569458,36.1599998474,0.0,0.0,4.52570676804,4.38751649857,-3.56587934494,0.264695763588,-0.0381916128099,0.138703480363,-0.111945971847,-0.023391244933,0.0,0.0,0.0,10,1,0,20.058795929,7.9979763031,,,,,,,,,,,,,,,,,,,,0.00816091988236,0.0116472737864,0.005834097974,0.0,0,2,0,0.798227310181,0,1,0.0,-0.0,0.0,0.0247524753213,0.99816006422,0.776942372322,-0.996323525906,0.0,7,0,10.0,10.0,10.0,10.0,0.0,0.0,0.0,0.0,,,,0.034796629101,0.0679579079151,0.00835550855845,0,0,0.0,0.0,0.300000011921,0,77,,,,,,,,,,,,,,,,,,,,,,,,,,,,,,,,,11.3310470581,11.3967895508,-1.0,-1.0,,,,,,,,,,,,,,,,,,,,,,,,,,,,,,,,,,,,,,,,,,,,,,,,,,,,,,,,,,,,,,,,,,,,,,,,,,,,,,,,,,,,,,,,,,,,,,,,,,,,,,,1403645822,PX4FMU_V1,251760679a4bed86fdb10746062fde2cc23e460f,test,305419904.0
-0.00668266648427,-0.0132995089516,-1.51741206646,0.0289692282677,0.0263270176947,0.0375234000385,0.0884321406484,-0.311994284391,-9.72839164734,0.0,0.0,-1.51060402393,0.0,0.0884321406484,-0.311994284391,-9.72839164734,0.0315650999546,0.028515137732,0.0332460030913,0.00712359650061,0.168481230736,0.359480112791,1018.98999023,-47.671295166,36.1599998474,0.0,0.0,4.52570676804,4.38751649857,-3.56706357002,0.264695763588,-0.0381916128099,0.138703480363,-0.111945971847,-0.025946194306,0.0,0.0,0.0,10,1,0,20.058795929,7.99809837341,,,,,,,,,,,,,,,,,,,,0.000577475817408,0.00522222882137,-0.00460062548518,0.0,0,2,0,0.798227310181,0,1,0.0,-0.0,0.0,0.0272277221084,0.99816006422,0.776942372322,-0.998161792755,0.0,7,0,10.0,10.0,10.0,10.0,0.0,0.0,0.0,0.0,,,,0.0334113501012,0.0664980113506,0.00685256533325,0,0,0.0,0.0,0.300000011921,0,77,,,,,,,,,,,,,,,,,,,,,,,,,,,,,,,,,11.3226661682,11.3966493607,-1.0,-1.0,,,,,,,,,,,,,,,,,,,,,,,,,,,,,,,,,,,,,,,,,,,,,,,,,,,,,,,,,,,,,,,,,,,,,,,,,,,,,,,,,,,,,,,,,,,,,,,,,,,,,,,1403667196,PX4FMU_V1,251760679a4bed86fdb10746062fde2cc23e460f,test,305419904.0
-0.00694127799943,-0.0135326292366,-1.51836621761,-0.0312596410513,-0.0232994500548,-0.0353956893086,-0.542585134506,0.518696010113,-9.92050552368,0.0,0.0,-1.51060402393,0.0,-0.542585134506,0.518696010113,-9.92050552368,-0.0294390134513,-0.0210944935679,-0.0130053777248,-0.01122400444,0.139353007078,0.362150430679,1019.0199585,-47.9198760986,36.1599998474,0.0,0.0,4.52570676804,4.38751649857,-3.56658935547,0.264695763588,-0.0381916128099,0.138703480363,-0.111945971847,-0.0238355416805,0.0,0.0,0.0,10,1,0,20.058795929,7.99821805954,,,,,,,,,,,,,,,,,,,,0.00857530906796,0.0118252094835,0.00648071896285,0.0,0,2,0,0.798227310181,0,1,0.0,-0.0,0.0,0.0247524753213,0.99816006422,0.779448628426,-0.998161792755,0.0,7,0,10.0,10.0,10.0,10.0,0.0,0.0,0.0,0.0,,,,0.0347042754292,0.0676637068391,0.00780910346657,0,0,0.0,0.0,0.300000011921,0,77,,,,,,,,,,,,,,,,,,,,,,,,,,,,,,,,,11.3310470581,11.3965177536,-1.0,-1.0,,,,,,,,,,,,,,,,,,,,,,,,,,,,,,,,,,,,,,,,,,,,,,,,,,,,,,,,,,,,,,,,,,,,,,,,,,,,,,,,,,,,,,,,,,,,,,,,,,,,,,,1403689375,PX4FMU_V1,251760679a4bed86fdb10746062fde2cc23e460f,test,305419904.0
-0.006731916219,-0.0133533338085,-1.51596617699,0.0270894300193,0.0240140873939,0.0347742848098,0.0881247147918,-0.299264937639,-9.69610118866,0.0,0.0,-1.51060402393,0.0,0.0881247147918,-0.299264937639,-9.69610118866,0.0337434075773,0.0319236069918,0.0293317511678,0.0245538279414,0.134359613061,0.36571085453,1018.9699707,-47.505569458,36.1599998474,0.0,0.0,4.52570676804,4.38751649857,-3.56541180611,0.264695763588,-0.0381916128099,0.138703480363,-0.111945971847,-0.0241449810565,0.0,0.0,0.0,10,1,0,20.058795929,7.99833869934,,,,,,,,,,,,,,,,,,,,0.000853859528434,0.00555790076032,-0.00440508220345,0.0,0,2,0,0.798227310181,0,1,0.0,-0.0,0.0,0.0247524753213,0.99816006422,0.776942372322,-0.996323525906,0.0,7,0,10.0,10.0,10.0,10.0,0.0,0.0,0.0,0.0,,,,0.0336575806141,0.0667671710253,0.00540707306936,0,0,0.0,0.0,0.300000011921,0,77,,,,,,,,,,,,,,,,,,,,,,,,,,,,,,,,,11.3226661682,11.3963785172,-1.0,-1.0,,,,,,,,,,,,,,,,,,,,,,,,,,,,,,,,,,,,,,,,,,,,,,,,,,,,,,,,,,,,,,,,,,,,,,,,,,,,,,,,,,,,,,,,,,,,,,,,,,,,,,,1403710271,PX4FMU_V1,251760679a4bed86fdb10746062fde2cc23e460f,test,305419904.0
-0.00674748513848,-0.0133804837242,-1.51595926285,-0.0247170627117,-0.0199159309268,-0.0434644557536,-0.254536271095,0.151802927256,-9.83299350739,0.0,0.0,-1.51060402393,0.0,-0.254536271095,0.151802927256,-9.83299350739,-0.0424978658557,-0.0342224128544,-0.0554119125009,0.0126278847456,0.149339839816,0.352359265089,1018.9699707,-47.505569458,36.1599998474,0.0,0.0,4.52570676804,4.38751649857,-3.56639146805,0.264695763588,-0.0381916128099,0.138703480363,-0.111945971847,-0.0235392786562,0.0,0.0,0.0,10,1,0,20.058795929,7.99839830399,,,,,,,,,,,,,,,,,,,,0.00759882153943,0.0112864514813,0.00732972659171,0.0,0,2,0,0.798227310181,0,1,0.0,-0.0,0.0,0.0272277221084,0.99816006422,0.776942372322,-0.998161792755,0.0,7,0,10.0,10.0,10.0,10.0,0.0,0.0,0.0,0.0,,,,0.0337354131043,0.0669029280543,0.00540038477629,18,-1,-0.1628459692,0.0124595128,0.300000011921,43,77,,,,,,,,,,,,,,,,,,,,,,,,,,,,,,,,,11.3310470581,11.3962478638,-1.0,-1.0,,,,,,,,,,,,,,,,,,,,,,,,,,,,,,,,,,,,,,,,,,,,,,,,,,,,,,,,,,,,,,,,,,,,,,,,,,,,,,,,,,,,,,,,,,,,,,,,,,,,,,,1403731544,PX4FMU_V1,251760679a4bed86fdb10746062fde2cc23e460f,test,305419904.0
-0.00677208369598,-0.0133798345923,-1.51579868793,0.0269844103605,0.0233072210103,0.0356372520328,0.0613709539175,-0.169007956982,-9.72489643097,0.0,0.0,-1.51060402393,0.0,0.0613709539175,-0.169007956982,-9.72489643097,0.0402733683586,0.0353341437876,0.0356955416501,0.016297403723,0.128533959389,0.370161414146,1018.95996094,-47.422706604,36.1599998474,0.0,0.0,4.52570676804,4.38751649857,-3.56640148163,0.264695763588,-0.0381916128099,0.138703480363,-0.111945971847,-0.0249462593347,0.0,0.0,0.0,10,1,0,20.058795929,7.99851989746,,,,,,,,,,,,,,,,,,,,0.000893619086128,0.00566702149808,-0.00455959886312,0.0,0,2,0,0.797454833984,0,1,0.0,-0.0,0.0,0.0272277221084,0.99816006422,0.776942372322,-0.998161792755,0.0,7,0,10.0,10.0,10.0,10.0,0.0,0.0,0.0,0.0,,,,0.0338584035635,0.0668996945024,0.00523992814124,-6,-22,0.0562500022352,0.204550862312,0.300000011921,0,77,,,,,,,,,,,,,,,,,,,,,,,,,,,,,,,,,11.3310470581,11.3961830139,-1.0,-1.0,,,,,,,,,,,,,,,,,,,,,,,,,,,,,,,,,,,,,,,,,,,,,,,,,,,,,,,,,,,,,,,,,,,,,,,,,,,,,,,,,,,,,,,,,,,,,,,,,,,,,,,1403754685,PX4FMU_V1,251760679a4bed86fdb10746062fde2cc23e460f,test,305419904.0
-0.0067637343891,-0.0134100727737,-1.5166939497,-0.0249026268721,-0.0207383967936,-0.0395769774914,-0.20538008213,0.216996878386,-9.82969284058,0.0,0.0,-1.51060402393,0.0,-0.20538008213,0.216996878386,-9.82969284058,-0.0415801070631,-0.0342190563679,-0.0521594472229,0.00161930872127,0.165152296424,0.358590006828,1018.94995117,-47.33984375,36.1599998474,0.0,0.0,4.52570676804,4.38751649857,-3.56986474991,0.264695763588,-0.0381916128099,0.138703480363,-0.111945971847,-0.0249720476568,0.0,0.0,0.0,10,1,0,20.058795929,7.99863958359,,,,,,,,,,,,,,,,,,,,0.00763350492343,0.0114126028493,0.00685683870688,0.0,0,2,0,0.797454833984,0,1,0.0,-0.0,0.0,0.0272277221084,0.99816006422,0.776942372322,-0.998161792755,0.0,7,0,10.0,10.0,10.0,10.0,0.0,0.0,0.0,0.0,,,,0.0338166430593,0.0670508593321,0.00613527838141,8,1,-0.0664796605706,-0.0147837847471,0.300000011921,59,77,,,,,,,,,,,,,,,,,,,,,,,,,,,,,,,,,11.3310470581,11.3960533142,-1.0,-1.0,,,,,,,,,,,,,,,,,,,,,,,,,,,,,,,,,,,,,,,,,,,,,,,,,,,,,,,,,,,,,,,,,,,,,,,,,,,,,,,,,,,,,,,,,,,,,,,,,,,,,,,1403775896,PX4FMU_V1,251760679a4bed86fdb10746062fde2cc23e460f,test,305419904.0
-0.00676736189052,-0.0133688952774,-1.51499211788,0.0272062197328,0.0233906656504,0.0372224487364,0.0361149460077,-0.221110895276,-9.74458122253,0.0,0.0,-1.51060402393,0.0,0.0361149460077,-0.221110895276,-9.74458122253,0.0381505787373,0.0328373238444,0.0424310825765,0.0199669245631,0.134359613061,0.367491066456,1019.00994873,-47.8370170593,36.1499977112,0.0,0.0,4.52570676804,4.38751649857,-3.57289218903,0.264695763588,-0.0381916128099,0.138703480363,-0.111945971847,-0.0297791939229,0.0,0.0,0.0,10,1,0,20.058795929,7.99876070023,,,,,,,,,,,,,,,,,,,,0.000861714943312,0.00564906140789,-0.00491837086156,0.0,0,2,0,0.797454833984,0,1,0.0,-0.0,0.0,0.0247524753213,1.0,0.776942372322,-0.998161792755,0.0,7,0,10.0,10.0,10.0,10.0,0.0,0.0,0.0,0.0,,,,0.0338347963989,0.066844984889,0.00443331105635,9,7,-0.0889954641461,-0.0639791637659,0.300000011921,55,77,,,,,,,,,,,,,,,,,,,,,,,,,,,,,,,,,11.3310470581,11.3959236145,-1.0,-1.0,,,,,,,,,,,,,,,,,,,,,,,,,,,,,,,,,,,,,,,,,,,,,,,,,,,,,,,,,,,,,,,,,,,,,,,,,,,,,,,,,,,,,,,,,,,,,,,,,,,,,,,1403798087,PX4FMU_V1,251760679a4bed86fdb10746062fde2cc23e460f,test,305419904.0
-0.00666538113728,-0.0132996439934,-1.51356160641,-0.0201848354191,-0.0162749551237,-0.039363052696,-0.071949198842,0.0601883530617,-9.82997322083,0.0,0.0,-1.51060402393,0.0,-0.071949198842,0.0601883530617,-9.82997322083,-0.040218424052,-0.0324866622686,-0.0639401003718,0.0199669245631,0.143514186144,0.366600960493,1019.0199585,-47.9198760986,36.1499977112,0.0,0.0,4.52570676804,4.38751649857,-3.5697453022,0.264695763588,-0.0381916128099,0.138703480363,-0.111945971847,-0.0261990614235,0.0,0.0,0.0,10,1,0,20.058795929,7.99888134003,,,,,,,,,,,,,,,,,,,,0.0069562708959,0.0107605764642,0.00635475525633,0.0,0,2,0,0.797454833984,0,1,0.0,-0.0,0.0,0.0272277221084,0.99816006422,0.776942372322,-0.998161792755,0.0,7,0,10.0,10.0,10.0,10.0,0.0,0.0,0.0,0.0,,,,0.0333249419928,0.0664987191558,0.00300198071636,2,-12,-0.0221020001918,0.113538600504,0.300000011921,47,77,,,,,,,,,,,,,,,,,,,,,,,,,,,,,,,,,11.3310470581,11.3957939148,-1.0,-1.0,,,,,,,,,,,,,,,,,,,,,,,,,,,,,,,,,,,,,,,,,,,,,,,,,,,,,,,,,,,,,,,,,,,,,,,,,,,,,,,,,,,,,,,,,,,,,,,,,,,,,,,1403819254,PX4FMU_V1,251760679a4bed86fdb10746062fde2cc23e460f,test,305419904.0
-0.00681220414117,-0.0133137116209,-1.51514422894,0.0219756253064,0.0193190090358,0.028086418286,-0.0116852074862,-0.0537214688957,-9.75133800507,0.0,0.0,-1.51060402393,0.0,-0.0116852074862,-0.0537214688957,-9.75133800507,0.0390091724694,0.0311138946563,0.0332457460463,0.038314525038,0.130198433995,0.362150430679,1018.98999023,-47.671295166,36.1300010681,0.0,0.0,4.52570676804,4.38751649857,-3.56726574898,0.264695763588,-0.0381916128099,0.138703480363,-0.111945971847,-0.0268887653947,0.0,0.0,0.0,10,1,0,20.058795929,7.99900197983,,,,,,,,,,,,,,,,,,,,0.00157083955128,0.00614250730723,-0.00352513301186,0.0,0,2,0,0.797454833984,0,1,0.0,-0.0,0.0,0.0247524753213,1.0,0.776942372322,-0.998161792755,0.0,7,0,10.0,10.0,10.0,10.0,0.0,0.0,0.0,0.0,,,,0.0340590067208,0.0665690675378,0.00458553154022,0,0,0.0,0.0,0.300000011921,0,77,,,,,,,,,,,,,,,,,,,,,,,,,,,,,,,,,11.3310470581,11.3956642151,-1.0,-1.0,,,,,,,,,,,,,,,,,,,,,,,,,,,,,,,,,,,,,,,,,,,,,,,,,,,,,,,,,,,,,,,,,,,,,,,,,,,,,,,,,,,,,,,,,,,,,,,,,,,,,,,1403841711,PX4FMU_V1,251760679a4bed86fdb10746062fde2cc23e460f,test,305419904.0
-0.00664077186957,-0.0132248550653,-1.51621711254,-0.017563810572,-0.0146627528593,-0.0308046881109,-0.107498772442,0.0346757173538,-9.80407714844,0.0,0.0,-1.51060402393,0.0,-0.107498772442,0.0346757173538,-9.80407714844,-0.0418818481266,-0.0347484983504,-0.0614018365741,-0.0359932780266,0.151836544275,0.364820748568,1019.0,-47.75415802,36.1300010681,0.0,0.0,4.52570676804,4.38751649857,-3.56711220741,0.264695763588,-0.0381916128099,0.138703480363,-0.111945971847,-0.0253624841571,0.0,0.0,0.0,10,1,0,20.058795929,7.99906206131,,,,,,,,,,,,,,,,,,,,0.0065995445475,0.010502374731,0.00546925002709,0.0,0,2,0,0.797454833984,0,1,0.0,-0.0,0.0,0.0247524753213,0.99816006422,0.779448628426,-0.998161792755,0.0,7,0,10.0,10.0,10.0,10.0,0.0,0.0,0.0,0.0,,,,0.0332019217312,0.0661247521639,0.00565697671846,0,0,0.0,0.0,0.300000011921,0,77,,,,,,,,,,,,,,,,,,,,,,,,,,,,,,,,,11.3310470581,11.3955993652,-1.0,-1.0,,,,,,,,,,,,,,,,,,,,,,,,,,,,,,,,,,,,,,,,,,,,,,,,,,,,,,,,,,,,,,,,,,,,,,,,,,,,,,,,,,,,,,,,,,,,,,,,,,,,,,,1403862592,PX4FMU_V1,251760679a4bed86fdb10746062fde2cc23e460f,test,305419904.0
-0.00695775588974,-0.0134647525847,-1.51452374458,0.00858966447413,0.00790105573833,0.0204702354968,-0.299215465784,0.301184743643,-9.89221858978,0.0,0.0,-1.51060402393,0.0,-0.299215465784,0.301184743643,-9.89221858978,0.0365944877267,0.030053069815,0.0522895157337,-0.0139761557803,0.148507609963,0.362150430679,1018.98999023,-47.671295166,36.1300010681,0.0,0.0,4.52570676804,4.38751649857,-3.56662559509,0.264695763588,-0.0381916128099,0.138703480363,-0.111945971847,-0.025643914938,0.0,0.0,0.0,10,1,0,20.058795929,7.99918174744,,,,,,,,,,,,,,,,,,,,0.00340561126359,0.00772502087057,-0.002475541085,0.0,0,2,0,0.797454833984,0,1,0.0,-0.0,0.0,0.0272277221084,0.99816006422,0.776942372322,-0.998161792755,0.0,7,0,10.0,10.0,10.0,10.0,0.0,0.0,0.0,0.0,,,,0.0347866751254,0.06732429564,0.00396662857383,0,0,0.0,0.0,0.300000011921,0,77,,,,,,,,,,,,,,,,,,,,,,,,,,,,,,,,,11.3394289017,11.3954868317,-1.0,-1.0,,,,,,,,,,,,,,,,,,,,,,,,,,,,,,,,,,,,,,,,,,,,,,,,,,,,,,,,,,,,,,,,,,,,,,,,,,,,,,,,,,,,,,,,,,,,,,,,,,,,,,,1403883774,PX4FMU_V1,251760679a4bed86fdb10746062fde2cc23e460f,test,305419904.0
-0.00656937109306,-0.0131789147854,-1.51250886917,-0.0141427954659,-0.0122692286968,-0.0318505913019,-0.0200689844787,-0.159556299448,-9.77092838287,0.0,0.0,-1.51060402393,0.0,-0.0200689844787,-0.159556299448,-9.77092838287,-0.0417534336448,-0.0348606258631,-0.0603720024228,0.0300581008196,0.137688547373,0.362150430679,1019.0199585,-47.9198760986,36.1300010681,0.0,0.0,4.52570676804,4.38751649857,-3.56514191628,0.264695763588,-0.0381916128099,0.138703480363,-0.111945971847,-0.0237545929849,0.0,0.0,0.0,10,1,0,20.058795929,7.9993019104,,,,,,,,,,,,,,,,,,,,0.00610840693116,0.0101613542065,0.00506980996579,0.0,0,2,0,0.797454833984,0,1,0.0,-0.0,0.0,0.0247524753213,0.99816006422,0.779448628426,-0.998161792755,0.0,7,0,10.0,10.0,10.0,10.0,0.0,0.0,0.0,0.0,,,,0.0328449495137,0.0658950358629,0.0019481414929,6,-7,-0.0592874623835,0.0671196356416,0.300000011921,67,77,,,,,,,,,,,,,,,,,,,,,,,,,,,,,,,,,11.3310470581,11.395357132,-1.0,-1.0,,,,,,,,,,,,,,,,,,,,,,,,,,,,,,,,,,,,,,,,,,,,,,,,,,,,,,,,,,,,,,,,,,,,,,,,,,,,,,,,,,,,,,,,,,,,,,,,,,,,,,,1403905828,PX4FMU_V1,251760679a4bed86fdb10746062fde2cc23e460f,test,305419904.0
-0.00698634376749,-0.0134767629206,-1.51329112053,0.0061133694835,0.00654131919146,0.0137237906456,-0.302169442177,0.41219073534,-9.89077377319,0.0,0.0,-1.51060402393,0.0,-0.302169442177,0.41219073534,-9.89077377319,0.0399440973997,0.0315647833049,0.0405146256089,0.0704228356481,0.144346430898,0.369271278381,1018.98999023,-47.671295166,36.1300010681,0.0,0.0,4.52570676804,4.38751649857,-3.56364321709,0.264695763588,-0.0381916128099,0.138703480363,-0.111945971847,-0.0241470932961,0.0,0.0,0.0,10,1,0,20.058795929,7.9994225502,,,,,,,,,,,,,,,,,,,,0.00374610978179,0.00790959503502,-0.00164843490347,0.0,0,2,0,0.797454833984,0,1,0.0,-0.0,0.0,0.0247524753213,0.99816006422,0.779448628426,-0.998161792755,0.0,7,0,10.0,10.0,10.0,10.0,0.0,0.0,0.0,0.0,,,,0.034929599613,0.0673843622208,0.00273422477767,0,0,0.0,0.0,0.300000011921,0,77,,,,,,,,,,,,,,,,,,,,,,,,,,,,,,,,,11.3310470581,11.3952207565,-1.0,-1.0,,,,,,,,,,,,,,,,,,,,,,,,,,,,,,,,,,,,,,,,,,,,,,,,,,,,,,,,,,,,,,,,,,,,,,,,,,,,,,,,,,,,,,,,,,,,,,,,,,,,,,,1403927326,PX4FMU_V1,251760679a4bed86fdb10746062fde2cc23e460f,test,305419904.0
-0.00653307046741,-0.0131337540224,-1.51549100876,-0.0117736710235,-0.0106695760041,-0.0217240657657,-0.0362493768334,-0.197995141149,-9.79983997345,0.0,0.0,-1.51060402393,0.0,-0.0362493768334,-0.197995141149,-9.79983997345,-0.0399315990508,-0.0356931462884,-0.05519304052,0.0410666614771,0.148507609963,0.37194159627,1019.00994873,-47.8370170593,36.1199989319,0.0,0.0,4.52570676804,4.38751649857,-3.56329751015,0.264695763588,-0.0381916128099,0.138703480363,-0.111945971847,-0.0220754425973,0.0,0.0,0.0,10,1,0,20.058795929,7.99954319,,,,,,,,,,,,,,,,,,,,0.00577682862058,0.00992404296994,0.00399809144437,0.0,0,2,0,0.797454833984,0,1,0.0,-0.0,0.0,0.0247524753213,1.0,0.776942372322,-0.998161792755,0.0,7,0,10.0,10.0,10.0,10.0,0.0,0.0,0.0,0.0,,,,0.0326634719968,0.0656692236662,0.00492987502366,0,0,0.0,0.0,0.300000011921,0,77,,,,,,,,,,,,,,,,,,,,,,,,,,,,,,,,,11.3310470581,11.3950843811,-1.0,-1.0,,,,,,,,,,,,,,,,,,,,,,,,,,,,,,,,,,,,,,,,,,,,,,,,,,,,,,,,,,,,,,,,,,,,,,,,,,,,,,,,,,,,,,,,,,,,,,,,,,,,,,,1403950168,PX4FMU_V1,251760679a4bed86fdb10746062fde2cc23e460f,test,305419904.0
-0.00699284765869,-0.0134806353599,-1.51882874966,0.00139957759529,0.0028338371776,0.00747704412788,-0.355637192726,0.537642240524,-9.90481758118,0.0,0.0,-1.51060402393,0.0,-0.355637192726,0.537642240524,-9.90481758118,0.0337857045233,0.0279397033155,0.0401604622602,-0.017645675689,0.135191857815,0.362150430679,1018.98999023,-47.671295166,36.1199989319,0.0,0.0,4.52570676804,4.38751649857,-3.56263518333,0.264695763588,-0.0381916128099,0.138703480363,-0.111945971847,-0.0222222339362,0.0,0.0,0.0,10,1,0,20.058795929,7.99960279465,,,,,,,,,,,,,,,,,,,,0.00436313031241,0.00839408580214,0.000119231182907,0.0,0,2,0,0.796722412109,0,1,0.0,-0.0,0.0,0.0247524753213,0.99816006422,0.779448628426,-0.998161792755,0.0,7,0,10.0,10.0,10.0,10.0,0.0,0.0,0.0,0.0,,,,0.034962117672,0.0674037262797,0.00827191863209,0,0,0.0,0.0,0.300000011921,0,77,,,,,,,,,,,,,,,,,,,,,,,,,,,,,,,,,11.3310470581,11.3950204849,-1.0,-1.0,,,,,,,,,,,,,,,,,,,,,,,,,,,,,,,,,,,,,,,,,,,,,,,,,,,,,,,,,,,,,,,,,,,,,,,,,,,,,,,,,,,,,,,,,,,,,,,,,,,,,,,1403970558,PX4FMU_V1,251760679a4bed86fdb10746062fde2cc23e460f,test,305419904.0
-0.00645374367014,-0.0130625292659,-1.51906764507,0.00824832264334,0.00505950069055,0.00359986722469,0.149455681443,-0.446030944586,-9.72874832153,0.0,0.0,-1.51060402393,0.0,0.149455681443,-0.446030944586,-9.72874832153,-0.0196836180985,-0.0193897318095,-0.0253127478063,0.0557447597384,0.151836544275,0.367491066456,1018.98999023,-47.671295166,36.1199989319,0.0,0.0,4.52570676804,4.38751649857,-3.56263446808,0.264695763588,-0.0381916128099,0.138703480363,-0.111945971847,-0.0217016413808,0.0,0.0,0.0,10,1,0,20.058795929,7.99972248077,,,,,,,,,,,,,,,,,,,,0.00312241213396,0.0078329667449,0.000735880283173,0.0,0,2,0,0.796722412109,0,1,0.0,-0.0,0.0,0.0247524753213,1.0,0.776942372322,-0.998161792755,0.0,7,0,10.0,10.0,10.0,10.0,0.0,0.0,0.0,0.0,,,,0.0322668775916,0.0653130933642,0.00850573554635,0,0,0.0,0.0,0.300000011921,0,77,,,,,,,,,,,,,,,,,,,,,,,,,,,,,,,,,11.3310470581,11.3948926926,-1.0,-1.0,,,,,,,,,,,,,,,,,,,,,,,,,,,,,,,,,,,,,,,,,,,,,,,,,,,,,,,,,,,,,,,,,,,,,,,,,,,,,,,,,,,,,,,,,,,,,,,,,,,,,,,1403991951,PX4FMU_V1,251760679a4bed86fdb10746062fde2cc23e460f,test,305419904.0
-0.00698364479467,-0.0135019402951,-1.52456176281,-0.00186451431364,0.00100511440542,0.00456088222563,-0.425372123718,0.552883863449,-9.93520736694,0.0,0.0,-1.51060402393,0.0,-0.425372123718,0.552883863449,-9.93520736694,0.0289684683084,0.0251560769975,0.0395189002156,-0.0231499485672,0.131030678749,0.358590006828,1018.98999023,-47.671295166,36.1100006104,0.0,0.0,4.52570676804,4.38751649857,-3.56159424782,0.264695763588,-0.0381916128099,0.138703480363,-0.111945971847,-0.0216013640165,0.0,0.0,0.0,10,1,0,20.058795929,7.99984359741,,,,,,,,,,,,,,,,,,,,0.00478148087859,0.00864566769451,0.00141660927329,0.0,0,2,0,0.796722412109,0,1,0.0,-0.0,0.0,0.0272277221084,0.99816006422,0.776942372322,-0.998161792755,0.0,7,0,10.0,10.0,10.0,10.0,0.0,0.0,0.0,0.0,,,,0.0349161066115,0.0675102546811,0.0140049438924,-9,-1,0.0862863361835,0.0131081435829,0.300000011921,0,77,,,,,,,,,,,,,,,,,,,,,,,,,,,,,,,,,11.3226661682,11.3947563171,-1.0,-1.0,,,,,,,,,,,,,,,,,,,,,,,,,,,,,,,,,,,,,,,,,,,,,,,,,,,,,,,,,,,,,,,,,,,,,,,,,,,,,,,,,,,,,,,,,,,,,,,,,,,,,,,1404014290,PX4FMU_V1,251760679a4bed86fdb10746062fde2cc23e460f,test,305419904.0
-0.00643053976819,-0.0130510833114,-1.52408444881,0.010055180639,0.00931272190064,0.00642555952072,0.148439973593,-0.450866103172,-9.63758182526,0.0,0.0,-1.51060402393,0.0,0.148439973593,-0.450866103172,-9.63758182526,-0.0172661095858,-0.0126699898392,-0.0209144931287,-0.0167282931507,0.132695138454,0.360370218754,1018.94995117,-47.33984375,36.1100006104,0.0,0.0,4.52570676804,4.38751649857,-3.56291842461,0.264695763588,-0.0381916128099,0.138703480363,-0.111945971847,-0.0207173954695,0.0,0.0,0.0,10,1,0,20.058795929,7.99996232986,,,,,,,,,,,,,,,,,,,,0.00287243886851,0.0072726062499,0.00106451904867,0.0,0,2,0,0.796722412109,0,1,0.0,-0.0,0.0,0.0272277221084,0.99816006422,0.776942372322,-0.998161792755,0.0,7,0,10.0,10.0,10.0,10.0,0.0,0.0,0.0,0.0,,,,0.0321508646011,0.0652558505535,0.0135223530233,-1,-11,0.0150000015274,0.10560657829,0.300000011921,47,77,,,,,,,,,,,,,,,,,,,,,,,,,,,,,,,,,11.3310470581,11.3946285248,-1.0,-1.0,,,,,,,,,,,,,,,,,,,,,,,,,,,,,,,,,,,,,,,,,,,,,,,,,,,,,,,,,,,,,,,,,,,,,,,,,,,,,,,,,,,,,,,,,,,,,,,,,,,,,,,1404035072,PX4FMU_V1,251760679a4bed86fdb10746062fde2cc23e460f,test,305419904.0
-0.00697961775586,-0.0135416360572,-1.52425992489,-0.0228772964329,-0.0161481443793,-0.0185861811042,-0.646237671375,0.539116621017,-9.82212162018,0.0,0.0,-1.51060402393,0.0,-0.646237671375,0.539116621017,-9.82212162018,-0.00406512478366,0.0019794460386,0.0123365465552,0.00895836390555,0.141849726439,0.361260324717,1018.94995117,-47.33984375,36.1100006104,0.0,0.0,4.52570676804,4.38751649857,-3.5648932457,0.264695763588,-0.0381916128099,0.138703480363,-0.111945971847,-0.0222611874342,0.0,0.0,0.0,10,1,0,20.058795929,8.00002288818,,,,,,,,,,,,,,,,,,,,0.00751052191481,0.0109013905749,0.00484340731055,0.0,0,2,0,0.796722412109,0,1,0.0,-0.0,0.0,0.0247524753213,0.99816006422,0.776942372322,-0.998161792755,0.0,7,0,10.0,10.0,10.0,10.0,0.0,0.0,0.0,0.0,,,,0.034895952791,0.0677087083459,0.0137032000348,-3,2,0.0345830023289,-0.0225703399628,0.300000011921,0,77,,,,,,,,,,,,,,,,,,,,,,,,,,,,,,,,,11.3310470581,11.3945646286,-1.0,-1.0,,,,,,,,,,,,,,,,,,,,,,,,,,,,,,,,,,,,,,,,,,,,,,,,,,,,,,,,,,,,,,,,,,,,,,,,,,,,,,,,,,,,,,,,,,,,,,,,,,,,,,,1404056319,PX4FMU_V1,251760679a4bed86fdb10746062fde2cc23e460f,test,305419904.0
-0.00642335740849,-0.0130387786776,-1.52492022514,0.0154441492632,0.0119172474369,0.00818989612162,0.227150022984,-0.568764925003,-9.60205841064,0.0,0.0,-1.51060402393,0.0,0.227150022984,-0.568764925003,-9.60205841064,-0.00966071709991,-0.0112889204174,-0.0125562865287,-0.00571973156184,0.131862893701,0.363040536642,1018.98999023,-47.671295166,36.1100006104,0.0,0.0,4.52570676804,4.38751649857,-3.56473493576,0.264695763588,-0.0381916128099,0.138703480363,-0.111945971847,-0.0230533629656,0.0,0.0,0.0,10,1,0,20.058795929,8.00014400482,,,,,,,,,,,,,,,,,,,,0.00216720649041,0.00692602340132,0.000925227475818,0.0,0,2,0,0.796722412109,0,1,0.0,-0.0,0.0,0.0247524753213,1.0,0.776942372322,-0.998161792755,0.0,7,0,10.0,10.0,10.0,10.0,0.0,0.0,0.0,0.0,,,,0.0321149677038,0.0651943534613,0.0143580790609,8,12,-0.0729022100568,-0.116716563702,0.300000011921,67,77,,,,,,,,,,,,,,,,,,,,,,,,,,,,,,,,,11.3310470581,11.3944368362,-1.0,-1.0,,,,,,,,,,,,,,,,,,,,,,,,,,,,,,,,,,,,,,,,,,,,,,,,,,,,,,,,,,,,,,,,,,,,,,,,,,,,,,,,,,,,,,,,,,,,,,,,,,,,,,,1404078145,PX4FMU_V1,251760679a4bed86fdb10746062fde2cc23e460f,test,305419904.0
-0.00692277029157,-0.0134961353615,-1.52596378326,-0.0214802380651,-0.015393499285,-0.0250608362257,-0.559469461441,0.565920472145,-9.91166782379,0.0,0.0,-1.51060402393,0.0,-0.559469461441,0.565920472145,-9.91166782379,-0.00280996924266,0.000711480155587,-0.0112940464169,0.000701939861756,0.134359613061,0.360370218754,1018.98999023,-47.671295166,36.1100006104,0.0,0.0,4.52570676804,4.38751649857,-3.5646879673,0.264695763588,-0.0381916128099,0.138703480363,-0.111945971847,-0.0217259302735,0.0,0.0,0.0,10,1,0,20.058795929,8.00026321411,,,,,,,,,,,,,,,,,,,,0.00729195680469,0.0107737127692,0.00607010396197,0.0,0,2,0,0.796722412109,0,1,0.0,-0.0,0.0,0.0247524753213,1.0,0.776942372322,-0.998161792755,0.0,7,0,10.0,10.0,10.0,10.0,0.0,0.0,0.0,0.0,,,,0.0346117429435,0.0674812197685,0.0154065247625,0,0,0.0,0.0,0.300000011921,0,77,,,,,,,,,,,,,,,,,,,,,,,,,,,,,,,,,11.3310470581,11.3943023682,-1.0,-1.0,,,,,,,,,,,,,,,,,,,,,,,,,,,,,,,,,,,,,,,,,,,,,,,,,,,,,,,,,,,,,,,,,,,,,,,,,,,,,,,,,,,,,,,,,,,,,,,,,,,,,,,1404098736,PX4FMU_V1,251760679a4bed86fdb10746062fde2cc23e460f,test,305419904.0
-0.0064818742685,-0.0130808278918,-1.52591443062,0.0252730064094,0.0213976353407,0.0285200923681,0.252065956593,-0.445159137249,-9.71918296814,0.0,0.0,-1.51060402393,0.0,0.252065956593,-0.445159137249,-9.71918296814,0.0152814602479,0.0114915380254,0.0193271245807,0.00804098043591,0.148507609963,0.367491066456,1019.02996826,-48.0027351379,36.0900001526,0.0,0.0,4.52570676804,4.38751649857,-3.56266856194,0.264695763588,-0.0381916128099,0.138703480363,-0.111945971847,-0.0216541755944,0.0,0.0,0.0,10,1,0,20.058795929,8.00038528442,,,,,,,,,,,,,,,,,,,,0.000927488494199,0.00572090735659,-0.00197509722784,0.0,0,2,0,0.796722412109,0,1,0.0,-0.0,0.0,0.0247524753213,1.0,0.776942372322,-0.998161792755,0.0,7,0,10.0,10.0,10.0,10.0,0.0,0.0,0.0,0.0,,,,0.0324075333774,0.0654046162963,0.0153527781367,4,-3,-0.0425065755844,0.0281567983329,0.300000011921,0,77,,,,,,,,,,,,,,,,,,,,,,,,,,,,,,,,,11.3310470581,11.3941679001,-1.0,-1.0,,,,,,,,,,,,,,,,,,,,,,,,,,,,,,,,,,,,,,,,,,,,,,,,,,,,,,,,,,,,,,,,,,,,,,,,,,,,,,,,,,,,,,,,,,,,,,,,,,,,,,,1404120078,PX4FMU_V1,251760679a4bed86fdb10746062fde2cc23e460f,test,305419904.0
-0.00690930895507,-0.0135182635859,-1.52720844746,-0.0250407457352,-0.0189341194928,-0.0271068830043,-0.530839085579,0.489931762218,-9.83852767944,0.0,0.0,-1.51060402393,0.0,-0.530839085579,0.489931762218,-9.83852767944,-0.0102732824162,-0.005354416091,-0.00456816330552,0.0144626367837,0.137688547373,0.364820748568,1018.95996094,-47.422706604,36.0900001526,0.0,0.0,4.52570676804,4.38751649857,-3.56244182587,0.264695763588,-0.0381916128099,0.138703480363,-0.111945971847,-0.0209993124008,0.0,0.0,0.0,10,1,0,20.058795929,8.00050640106,,,,,,,,,,,,,,,,,,,,0.00774607528001,0.0112483780831,0.00656369747594,0.0,0,2,0,0.796722412109,0,1,0.0,-0.0,0.0,0.0247524753213,0.99816006422,0.776942372322,-0.996323525906,0.0,7,0,10.0,10.0,10.0,10.0,0.0,0.0,0.0,0.0,,,,0.0345444492996,0.0675918757915,0.0166511014104,0,0,0.0,0.0,0.300000011921,0,77,,,,,,,,,,,,,,,,,,,,,,,,,,,,,,,,,11.3310470581,11.3940420151,-1.0,-1.0,,,,,,,,,,,,,,,,,,,,,,,,,,,,,,,,,,,,,,,,,,,,,,,,,,,,,,,,,,,,,,,,,,,,,,,,,,,,,,,,,,,,,,,,,,,,,,,,,,,,,,,1404142340,PX4FMU_V1,251760679a4bed86fdb10746062fde2cc23e460f,test,305419904.0
-0.00652894889936,-0.0131587199867,-1.52766680717,0.0278922673315,0.0223492458463,0.021711897105,0.296370565891,-0.42010384798,-9.66683101654,0.0,0.0,-1.51060402393,0.0,0.296370565891,-0.42010384798,-9.66683101654,0.0241482574493,0.0162214003503,0.0106374006718,-0.00205021142028,0.149339839816,0.373721808195,1019.00994873,-47.8370170593,36.0900001526,0.0,0.0,4.52570676804,4.38751649857,-3.56393432617,0.264695763588,-0.0381916128099,0.138703480363,-0.111945971847,-0.0227530170232,0.0,0.0,0.0,10,1,0,20.058795929,8.00056552887,,,,,,,,,,,,,,,,,,,,0.000617576530203,0.00564782554284,-0.000690915854648,0.0,0,2,0,0.796722412109,0,1,0.0,-0.0,0.0,0.0272277221084,0.99816006422,0.776942372322,-0.998161792755,0.0,7,0,10.0,10.0,10.0,10.0,0.0,0.0,0.0,0.0,,,,0.0326428562403,0.0657940581441,0.0171057917178,0,0,0.0,0.0,0.300000011921,0,77,,,,,,,,,,,,,,,,,,,,,,,,,,,,,,,,,11.3310470581,11.3939790726,-1.0,-1.0,,,,,,,,,,,,,,,,,,,,,,,,,,,,,,,,,,,,,,,,,,,,,,,,,,,,,,,,,,,,,,,,,,,,,,,,,,,,,,,,,,,,,,,,,,,,,,,,,,,,,,,1404163167,PX4FMU_V1,251760679a4bed86fdb10746062fde2cc23e460f,test,305419904.0
-0.00676225405186,-0.013424679637,-1.52671289444,-0.0294328927994,-0.0233315695077,-0.0316233113408,-0.412226617336,0.431674480438,-9.88767623901,0.0,0.0,-1.51060402393,0.0,-0.412226617336,0.431674480438,-9.88767623901,-0.0358111485839,-0.0254526510835,-0.0402505062521,0.0245538279414,0.143514186144,0.359480112791,1018.95996094,-47.422706604,36.0900001526,0.0,0.0,4.52570676804,4.38751649857,-3.56363129616,0.264695763588,-0.0381916128099,0.138703480363,-0.111945971847,-0.0206737164408,0.0,0.0,0.0,10,1,0,20.058795929,8.00068664551,,,,,,,,,,,,,,,,,,,,0.00822147727013,0.0117592141032,0.00716663151979,0.0,0,2,0,0.795943558216,0,1,0.0,-0.0,0.0,0.0247524753213,1.0,0.776942372322,-0.998161792755,0.0,7,0,10.0,10.0,10.0,10.0,0.0,0.0,0.0,0.0,,,,0.0338092446327,0.067123927176,0.0161542277783,0,0,0.0,0.0,0.300000011921,0,77,,,,,,,,,,,,,,,,,,,,,,,,,,,,,,,,,11.3310470581,11.3938531876,-1.0,-1.0,,,,,,,,,,,,,,,,,,,,,,,,,,,,,,,,,,,,,,,,,,,,,,,,,,,,,,,,,,,,,,,,,,,,,,,,,,,,,,,,,,,,,,,,,,,,,,,,,,,,,,,1404184285,PX4FMU_V1,251760679a4bed86fdb10746062fde2cc23e460f,test,305419904.0
-0.00655469624326,-0.0131695745513,-1.52679169178,0.0280959717929,0.0242488067597,0.0229838564992,0.251430690289,-0.280978620052,-9.73090553284,0.0,0.0,-1.51060402393,0.0,0.251430690289,-0.280978620052,-9.73090553284,0.0272009968758,0.0210899394006,0.0131955156103,0.0318928696215,0.154333248734,0.351469159126,1018.97998047,-47.588432312,36.0900001526,0.0,0.0,4.52570676804,4.38751649857,-3.56524753571,0.264695763588,-0.0381916128099,0.138703480363,-0.111945971847,-0.0228530634195,0.0,0.0,0.0,10,1,0,20.058795929,8.00080680847,,,,,,,,,,,,,,,,,,,,0.000607831461821,0.00540794199333,-0.00101295253262,0.0,0,2,0,0.795943558216,0,1,0.0,-0.0,0.0,0.0247524753213,1.0,0.776942372322,-0.998161792755,0.0,7,0,10.0,10.0,10.0,10.0,0.0,0.0,0.0,0.0,,,,0.0327715985477,0.0658483654261,0.0162308402359,9,-20,-0.0889634937048,0.187394142151,0.300000011921,0,77,,,,,,,,,,,,,,,,,,,,,,,,,,,,,,,,,11.3394289017,11.3937273026,-1.0,-1.0,,,,,,,,,,,,,,,,,,,,,,,,,,,,,,,,,,,,,,,,,,,,,,,,,,,,,,,,,,,,,,,,,,,,,,,,,,,,,,,,,,,,,,,,,,,,,,,,,,,,,,,1404206323,PX4FMU_V1,251760679a4bed86fdb10746062fde2cc23e460f,test,305419904.0
-0.00671993382275,-0.0133843943477,-1.52547562122,-0.0287883281708,-0.0228995475918,-0.0274908076972,-0.435494810343,0.37509483099,-9.89570808411,0.0,0.0,-1.51060402393,0.0,-0.435494810343,0.37509483099,-9.89570808411,-0.0399183668196,-0.0285141393542,-0.0357193499804,0.0263885818422,0.127701729536,0.360370218754,1019.0,-47.75415802,36.0900001526,0.0,0.0,4.52570676804,4.38751649857,-3.56519985199,0.264695763588,-0.0381916128099,0.138703480363,-0.111945971847,-0.0217822231352,0.0,0.0,0.0,10,1,0,20.058795929,8.00092697144,,,,,,,,,,,,,,,,,,,,0.00811017956585,0.0116768646985,0.00636110967025,0.0,0,2,0,0.795943558216,0,1,0.0,-0.0,0.0,0.0247524753213,0.99816006422,0.779448628426,-0.998161792755,0.0,7,0,10.0,10.0,10.0,10.0,0.0,0.0,0.0,0.0,,,,0.0335976704955,0.066922493279,0.0149165885523,0,0,0.0,0.0,0.300000011921,0,77,,,,,,,,,,,,,,,,,,,,,,,,,,,,,,,,,11.3310470581,11.3935928345,-1.0,-1.0,,,,,,,,,,,,,,,,,,,,,,,,,,,,,,,,,,,,,,,,,,,,,,,,,,,,,,,,,,,,,,,,,,,,,,,,,,,,,,,,,,,,,,,,,,,,,,,,,,,,,,,1404227794,PX4FMU_V1,251760679a4bed86fdb10746062fde2cc23e460f,test,305419904.0
