ATT_Roll,ATT_Pitch,ATT_Yaw,ATT_RollRate,ATT_PitchRate,ATT_YawRate,ATT_GX,ATT_GY,ATT_GZ,ATSP_RollSP,ATSP_PitchSP,ATSP_YawSP,ATSP_ThrustSP,IMU_AccX,IMU_AccY,IMU_AccZ,IMU_GyroX,IMU_GyroY,IMU_GyroZ,IMU_MagX,IMU_MagY,IMU_MagZ,SENS_BaroPres,SENS_BaroAlt,SENS_BaroTemp,SENS_DiffPres,SENS_DiffPresFilt,LPOS_X,LPOS_Y,LPOS_Z,LPOS_Dist,LPOS_DistR,LPOS_VX,LPOS_VY,LPOS_VZ,LPOS_RLat,LPOS_RLon,LPOS_RAlt,LPOS_PFlg,LPOS_LFlg,LPOS_GFlg,LPOS_EPH,LPOS_EPV,LPSP_X,LPSP_Y,LPSP_Z,LPSP_Yaw,GPS_GPSTime,GPS_Fix,GPS_EPH,GPS_EPV,GPS_Lat,GPS_Lon,GPS_Alt,GPS_VelN,GPS_VelE,GPS_VelD,GPS_Cog,GPS_nSat,GPS_SNR,GPS_N,GPS_J,ATTC_Roll,ATTC_Pitch,ATTC_Yaw,ATTC_Thrust,STAT_MainState,STAT_ArmState,STAT_FailsafeState,STAT_BatRem,STAT_BatWarn,STAT_Landed,RC_Ch0,RC_Ch1,RC_Ch2,RC_Ch3,RC_Ch4,RC_Ch5,RC_Ch6,RC_Ch7,RC_Count,RC_SignalLost,OUT0_Out0,OUT0_Out1,OUT0_Out2,OUT0_Out3,OUT0_Out4,OUT0_Out5,OUT0_Out6,OUT0_Out7,AIRS_IndSpeed,AIRS_TrueSpeed,AIRS_AirTemp,ARSP_RollRateSP,ARSP_PitchRateSP,ARSP_YawRateSP,FLOW_RawX,FLOW_RawY,FLOW_CompX,FLOW_CompY,FLOW_Dist,FLOW_Q,FLOW_SensID,GPOS_Lat,GPOS_Lon,GPOS_Alt,GPOS_VelN,GPOS_VelE,GPOS_VelD,GPOS_EPH,GPOS_EPV,GPSP_NavState,GPSP_Lat,GPSP_Lon,GPSP_Alt,GPSP_Yaw,GPSP_Type,GPSP_LoitR,GPSP_LoitDir,GPSP_PitMin,ESC_count,ESC_nESC,ESC_Conn,ESC_N,ESC_Ver,ESC_Adr,ESC_Volt,ESC_Amp,ESC_RPM,ESC_Temp,ESC_SetP,ESC_SetPRAW,GVSP_VX,GVSP_VY,GVSP_VZ,BATT_V,BATT_VFilt,BATT_C,BATT_Discharged,DIST_Bottom,DIST_BottomRate,DIST_Flags,TELE_RSSI,TELE_RemRSSI,TELE_Noise,TELE_RemNoise,TELE_RXErr,TELE_Fixed,TELE_TXBuf,ESTM_s0,ESTM_s1,ESTM_s2,ESTM_s3,ESTM_s4,ESTM_s5,ESTM_s6,ESTM_s7,ESTM_s8,ESTM_s9,ESTM_nStat,ESTM_statNaN,ESTM_covNaN,ESTM_kGainNaN,PWR_Periph5V,PWR_Servo5V,PWR_RSSI,PWR_UsbOk,PWR_BrickOk,PWR_ServoOk,PWR_PeriphOC,PWR_HipwrOC,VICN_X,VICN_Y,VICN_Z,VICN_Roll,VICN_Pitch,VICN_Yaw,GS0A_s0,GS0A_s1,GS0A_s2,GS0A_s3,GS0A_s4,GS0A_s5,GS0A_s6,GS0A_s7,GS0A_s8,GS0A_s9,GS0A_s10,GS0A_s11,GS0A_s12,GS0A_s13,GS0A_s14,GS0A_s15,GS0B_s0,GS0B_s1,GS0B_s2,GS0B_s3,GS0B_s4,GS0B_s5,GS0B_s6,GS0B_s7,GS0B_s8,GS0B_s9,GS0B_s10,GS0B_s11,GS0B_s12,GS0B_s13,GS0B_s14,GS0B_s15,GS1A_s0,GS1A_s1,GS1A_s2,GS1A_s3,GS1A_s4,GS1A_s5,GS1A_s6,GS1A_s7,GS1A_s8,GS1A_s9,GS1A_s10,GS1A_s11,GS1A_s12,GS1A_s13,GS1A_s14,GS1A_s15,GS1B_s0,GS1B_s1,GS1B_s2,GS1B_s3,GS1B_s4,GS1B_s5,GS1B_s6,GS1B_s7,GS1B_s8,GS1B_s9,GS1B_s10,GS1B_s11,GS1B_s12,GS1B_s13,GS1B_s14,GS1B_s15,TIME_StartTime,VER_Arch,VER_FwGit,PARM_Name,PARM_Value
,,,,,,,,,,,,,,,,,,,,,,,,,,,,,,,,,,,,,,,,,,,,,,,,,,,,,,,,,,,,,,,,,,,,,,,,,,,,,,,,,,,,,,,,,,,,,,,,,,,,,,,,,,,,,,,,,,,,,,,,,,,,,,,,,,,,,,,,,,,,,,,,,,,,,,,,,,,,,,,,,,,,,,,,,,,,,,,,,,,,,,,,,,,,,,,,,,,,,,,,,,,,,,,,,,,,,,,,,,,,,,,,,,,,,,,,,,,,,,,,,,PX4FMU_V1,6770a48684aa339926e77855ea4d0b9491666ebc,test,305419904.0
0.018897537142,-0.00102701352444,-2.16602396965,-0.0203688293695,0.021385082975,-0.00606481265277,0.45596203208,0.146391138434,-9.84098434448,0.0,0.0,-2.08349370956,0.0,0.45596203208,0.146391138434,-9.84098434448,-0.0186825748533,0.0211656354368,-0.00782952550799,-0.0892013311386,0.174306884408,0.433358937502,1015.84997559,-21.6202907562,31.0699996948,0.0,0.0,0.0,0.0,-0.230603650212,0.0,0.0,0.0,0.0,-0.0166506338865,0.0,0.0,0.0,10,1,0,20.0,1.5174895525,0.0,0.0,2.47155547142,-2.09553003311,,,,,,,,,,,,,,,,-0.00963544752449,-0.00211246241815,0.0132877873257,0.0,0,2,0,1.0,0,1,0.0,-0.0,0.0,0.0272277221084,0.99816006422,0.656641602516,-0.998161792755,0.0,7,0,10.0,10.0,10.0,10.0,0.0,0.0,0.0,0.0,,,,-0.0944876596332,0.00513537274674,0.0825204327703,0,0,0.0,0.0,4.52400016785,0,77,,,,,,,,,,,,,,,,,,,,,,,,,,,,,,0.0,0.0,3.89839744568,12.4624757767,12.510178566,-1.0,-1.0,,,,,,,,,,,,,,,,,,,,,,,,,,,,,,,,,,,,,,,,,,,,,,,,,,,,,,,,,,,,,,,,,,,,,,,,,,,,,,,,,,,,,,,,,,,,,,,,,,,,,,,107557140,PX4FMU_V1,6770a48684aa339926e77855ea4d0b9491666ebc,test,305419904.0
0.0189879368991,-0.00108681782149,-2.16441369057,0.0229131560773,-0.0233800187707,0.00317111285403,-0.254263550043,-0.299597322941,-9.83099937439,0.0,0.0,-2.08349370956,0.0,-0.254263550043,-0.299597322941,-9.83099937439,0.0353646725416,-0.0352718271315,0.00549529492855,-0.0745232477784,0.155997723341,0.440479785204,1015.82995605,-21.4541511536,31.0699996948,0.0,0.0,0.0,0.0,-0.22863329947,0.0,0.0,0.0,0.0,-0.0156889744103,0.0,0.0,0.0,10,1,0,20.0,1.51754999161,0.0,0.0,2.47155547142,-2.09553003311,,,,,,,,,,,,,,,,-0.0153208645061,0.00374587555416,0.0116607667878,0.0,0,2,0,1.0,0,1,0.0,-0.0,0.0,0.0247524753213,1.0,0.656641602516,-0.998161792755,0.0,7,0,10.0,10.0,10.0,10.0,0.0,0.0,0.0,0.0,,,,-0.0949396491051,0.00543440878391,0.0809095576406,0,0,0.0,0.0,4.52400016785,0,77,,,,,,,,,,,,,,,,,,,,,,,,,,,,,,0.0,0.0,3.89839744568,12.4624757767,12.5100917816,-1.0,-1.0,,,,,,,,,,,,,,,,,,,,,,,,,,,,,,,,,,,,,,,,,,,,,,,,,,,,,,,,,,,,,,,,,,,,,,,,,,,,,,,,,,,,,,,,,,,,,,,,,,,,,,,107577494,PX4FMU_V1,6770a48684aa339926e77855ea4d0b9491666ebc,test,305419904.0
0.0191344916821,-0.00128173117992,-2.16813540459,-0.0159665234387,0.0118608213961,0.00609544618055,-0.0643089711666,-0.288271456957,-9.78329181671,0.0,0.0,-2.08349370956,0.0,-0.0643089711666,-0.288271456957,-9.78329181671,-0.0365148745477,0.0294784791768,0.00228687794879,-0.125896558166,0.130198433995,0.428908407688,1015.78997803,-21.1218662262,31.0599994659,0.0,0.0,0.0,0.0,-0.225712493062,0.0,0.0,0.0,0.0,-0.0137571906671,0.0,0.0,0.0,10,1,0,20.0,1.51766991615,0.0,0.0,2.47155547142,-2.09553003311,,,,,,,,,,,,,,,,-0.0103617655113,-0.000708729960024,0.0117801083252,0.0,0,2,0,1.0,0,1,0.0,-0.0,0.0,0.0247524753213,1.0,0.656641602516,-0.998161792755,0.0,7,0,10.0,10.0,10.0,10.0,0.0,0.0,0.0,0.0,,,,-0.0956724137068,0.00640905229375,0.0846294984221,0,0,0.0,0.0,4.52400016785,0,77,,,,,,,,,,,,,,,,,,,,,,,,,,,,,,0.0,0.0,3.89839744568,12.4708566666,12.510052681,-1.0,-1.0,,,,,,,,,,,,,,,,,,,,,,,,,,,,,,,,,,,,,,,,,,,,,,,,,,,,,,,,,,,,,,,,,,,,,,,,,,,,,,,,,,,,,,,,,,,,,,,,,,,,,,,107598757,PX4FMU_V1,6770a48684aa339926e77855ea4d0b9491666ebc,test,305419904.0
0.0188726745546,-0.00093964120606,-2.16871643066,0.0173707865179,-0.0146393384784,-0.00220574229024,0.178263932467,-0.103629395366,-9.84597492218,0.0,0.0,-2.08349370956,0.0,0.178263932467,-0.103629395366,-9.84597492218,0.0401507094502,-0.0362485572696,0.00395781965926,-0.121309638023,0.195944979787,0.434249043465,1015.77996826,-21.0387916565,31.0599994659,0.0,0.0,0.0,0.0,-0.226306334138,0.0,0.0,0.0,0.0,-0.0153025873005,0.0,0.0,0.0,10,1,0,20.0,1.51779103279,0.0,0.0,2.47155547142,-2.09553003311,,,,,,,,,,,,,,,,-0.0145254377276,0.00251391762868,0.0131129212677,0.0,0,2,0,1.0,0,1,0.0,-0.0,0.0,0.0272277221084,0.99816006422,0.656641602516,-0.998161792755,0.0,7,0,10.0,10.0,10.0,10.0,0.0,0.0,0.0,0.0,,,,-0.0943633466959,0.00469849025831,0.0852137282491,1,-17,-0.183787181973,2.3690571785,4.52400016785,0,77,,,,,,,,,,,,,,,,,,,,,,,,,,,,,,0.0,0.0,3.89839744568,12.4792375565,12.5099830627,-1.0,-1.0,,,,,,,,,,,,,,,,,,,,,,,,,,,,,,,,,,,,,,,,,,,,,,,,,,,,,,,,,,,,,,,,,,,,,,,,,,,,,,,,,,,,,,,,,,,,,,,,,,,,,,,107621237,PX4FMU_V1,6770a48684aa339926e77855ea4d0b9491666ebc,test,305419904.0
0.0192757826298,-0.00143895694055,-2.16967082024,-0.00231518712826,-0.00313969235867,0.0113110253587,-0.463853597641,-0.519275546074,-9.82889270782,0.0,0.0,-2.08349370956,0.0,-0.463853597641,-0.519275546074,-9.82889270782,-0.0287429690361,0.0220080148429,0.00989906489849,-0.101127289236,0.118547149003,0.43602925539,1015.80999756,-21.2880096436,31.0699996948,0.0,0.0,0.0,0.0,-0.226396560669,0.0,0.0,0.0,0.0,-0.0148055572063,0.0,0.0,0.0,10,1,0,20.0,1.51790964603,0.0,0.0,2.47155547142,-2.09553003311,,,,,,,,,,,,,,,,-0.0122282747179,0.00134354003239,0.0112278107554,0.0,0,2,0,1.0,0,1,0.0,-0.0,0.0,0.0247524753213,1.0,0.656641602516,-0.998161792755,0.0,7,0,10.0,10.0,10.0,10.0,0.0,0.0,0.0,0.0,,,,-0.0963788405061,0.00719523103908,0.0861630961299,2,-17,-0.301646828651,2.36562013626,4.52400016785,0,77,,,,,,,,,,,,,,,,,,,,,,,,,,,,,,0.0,0.0,3.89839744568,12.4708566666,12.5099048615,-1.0,-1.0,,,,,,,,,,,,,,,,,,,,,,,,,,,,,,,,,,,,,,,,,,,,,,,,,,,,,,,,,,,,,,,,,,,,,,,,,,,,,,,,,,,,,,,,,,,,,,,,,,,,,,,107642085,PX4FMU_V1,6770a48684aa339926e77855ea4d0b9491666ebc,test,305419904.0
0.0187247339636,-0.000893074669875,-2.16969513893,-0.011347470805,0.0133657371625,-0.00581893604249,0.74733299017,0.403065264225,-9.82307720184,0.0,0.0,-2.08349370956,0.0,0.74733299017,0.403065264225,-9.82307720184,0.0127157401294,-0.00604510959238,-0.0110835628584,-0.136905103922,0.18845488131,0.436919361353,1015.82000732,-21.3710803986,31.0699996948,0.0,0.0,0.0,0.0,-0.225112497807,0.0,0.0,0.0,0.0,-0.0146756637841,0.0,0.0,0.0,10,1,0,20.0,1.51796972752,0.0,0.0,2.47155547142,-2.09553003311,,,,,,,,,,,,,,,,-0.0106959026307,-0.00115701300092,0.0138017991558,0.0,0,2,0,1.0,0,1,0.0,-0.0,0.0,0.0247524753213,0.99816006422,0.656641602516,-0.996323525906,0.0,7,0,10.0,10.0,10.0,10.0,0.0,0.0,0.0,0.0,,,,-0.0936236530542,0.00446563679725,0.0861930549145,-7,2,0.964201390743,-0.31806692481,4.52400016785,47,77,,,,,,,,,,,,,,,,,,,,,,,,,,,,,,0.0,0.0,3.89839744568,12.4792375565,12.5098352432,-1.0,-1.0,,,,,,,,,,,,,,,,,,,,,,,,,,,,,,,,,,,,,,,,,,,,,,,,,,,,,,,,,,,,,,,,,,,,,,,,,,,,,,,,,,,,,,,,,,,,,,,,,,,,,,,107663199,PX4FMU_V1,6770a48684aa339926e77855ea4d0b9491666ebc,test,305419904.0
0.019367646426,-0.00144443067256,-2.17096066475,0.0121164275333,-0.0139368893579,0.0127057312056,-0.507713317871,-0.65709400177,-9.70308876038,0.0,0.0,-2.08349370956,0.0,-0.507713317871,-0.65709400177,-9.70308876038,-0.0156794600189,0.00688258372247,0.0201146677136,-0.141492024064,0.18595816195,0.43602925539,1015.82000732,-21.3710803986,31.0699996948,0.0,0.0,0.0,0.0,-0.222189873457,0.0,0.0,0.0,0.0,-0.0137822991237,0.0,0.0,0.0,10,1,0,20.0,1.51809108257,0.0,0.0,2.47155547142,-2.09553003311,,,,,,,,,,,,,,,,-0.0141640966758,0.00275073479861,0.0112120993435,0.0,0,2,0,1.0,0,1,0.0,-0.0,0.0,0.0247524753213,1.0,0.656641602516,-0.998161792755,0.0,7,0,10.0,10.0,10.0,10.0,0.0,0.0,0.0,0.0,,,,-0.0968381687999,0.00722260959446,0.0874530524015,3,-13,-0.413629621267,1.77893900871,4.52400016785,0,77,,,,,,,,,,,,,,,,,,,,,,,,,,,,,,0.0,0.0,3.89839744568,12.4792375565,12.5097742081,-1.0,-1.0,,,,,,,,,,,,,,,,,,,,,,,,,,,,,,,,,,,,,,,,,,,,,,,,,,,,,,,,,,,,,,,,,,,,,,,,,,,,,,,,,,,,,,,,,,,,,,,,,,,,,,,107684948,PX4FMU_V1,6770a48684aa339926e77855ea4d0b9491666ebc,test,305419904.0
0.018736332655,-0.000953259761445,-2.16964459419,-0.0277366805822,0.0268132667989,-0.00360993808135,0.687815070152,0.374977201223,-9.91353988647,0.0,0.0,-2.08349370956,0.0,0.687815070152,0.374977201223,-9.91353988647,-0.0103160729632,0.0190816633403,-0.0159824918956,-0.0892013311386,0.160991117358,0.442259997129,1015.82000732,-21.3710803986,31.0599994659,0.0,0.0,0.0,0.0,-0.21729516983,0.0,0.0,0.0,0.0,-0.0112565467134,0.0,0.0,0.0,10,1,0,20.0,1.51821053028,0.0,0.0,2.47155547142,-2.09553003311,,,,,,,,,,,,,,,,-0.00857284385711,-0.00286606955342,0.0134627632797,0.0,0,2,0,1.0,0,1,0.0,-0.0,0.0,0.0272277221084,0.99816006422,0.656641602516,-0.998161792755,0.0,7,0,10.0,10.0,10.0,10.0,0.0,0.0,0.0,0.0,,,,-0.0936816334724,0.00476657832041,0.0861418098211,-1,-18,0.0517734289169,1.19979667664,4.52400016785,43,77,,,,,,,,,,,,,,,,,,,,,,,,,,,,,,0.0,0.0,3.89839744568,12.4708566666,12.5097351074,-1.0,-1.0,,,,,,,,,,,,,,,,,,,,,,,,,,,,,,,,,,,,,,,,,,,,,,,,,,,,,,,,,,,,,,,,,,,,,,,,,,,,,,,,,,,,,,,,,,,,,,,,,,,,,,,107705632,PX4FMU_V1,6770a48684aa339926e77855ea4d0b9491666ebc,test,305419904.0
0.0192338656634,-0.00126699509565,-2.16937613487,0.0382936894894,-0.0340227372944,0.00225530099124,-0.602075695992,-0.912216246128,-9.77523136139,0.0,0.0,-2.08349370956,0.0,-0.602075695992,-0.912216246128,-9.77523136139,0.0353644862771,-0.0362202078104,0.0167477168143,-0.0846144407988,0.139353007078,0.420897454023,1015.82000732,-21.3710803986,31.0599994659,0.0,0.0,0.0,0.0,-0.214427217841,0.0,0.0,0.0,0.0,-0.0107722580433,0.0,0.0,0.0,10,1,0,20.0,1.51833057404,0.0,0.0,2.47155547142,-2.09553003311,,,,,,,,,,,,,,,,-0.0174801871181,0.00524655357003,0.0125422310084,0.0,0,2,0,1.0,0,1,0.0,-0.0,0.0,0.0247524753213,1.0,0.654135346413,-0.996323525906,0.0,7,0,10.0,10.0,10.0,10.0,0.0,0.0,0.0,0.0,,,,-0.0961692929268,0.00633536931127,0.0858701691031,0,20,-0.0394510664046,-2.31331253052,4.52400016785,0,77,,,,,,,,,,,,,,,,,,,,,,,,,,,,,,0.0,0.0,3.89839744568,12.4708566666,12.5096654892,-1.0,-1.0,,,,,,,,,,,,,,,,,,,,,,,,,,,,,,,,,,,,,,,,,,,,,,,,,,,,,,,,,,,,,,,,,,,,,,,,,,,,,,,,,,,,,,,,,,,,,,,,,,,,,,,107726861,PX4FMU_V1,6770a48684aa339926e77855ea4d0b9491666ebc,test,305419904.0
0.0187676083297,-0.00102733611129,-2.17058444023,-0.0391487143934,0.0324684046209,0.00311109237373,0.479125857353,0.367822885513,-9.96527957916,0.0,0.0,-2.08349370956,0.0,0.479125857353,0.367822885513,-9.96527957916,-0.0343516841531,0.033180616796,-0.0123342890292,-0.134152948856,0.151004299521,0.425347983837,1015.83996582,-21.5372200012,31.0499992371,0.0,0.0,0.0,0.0,-0.210868790746,0.0,0.0,0.0,0.0,-0.00893402472138,0.0,0.0,0.0,10,1,0,20.0,1.518450737,0.0,0.0,2.47155547142,-2.09553003311,,,,,,,,,,,,,,,,-0.00710961269215,-0.00355308502913,0.0125954942778,0.0,0,2,0,1.0,0,1,0.0,-0.0,0.0,0.0247524753213,0.99816006422,0.656641602516,-0.998161792755,0.0,7,0,10.0,10.0,10.0,10.0,0.0,0.0,0.0,0.0,,,,-0.0938380435109,0.00513697974384,0.0870810523629,2,-5,-0.394450694323,0.709430336952,4.52400016785,47,77,,,,,,,,,,,,,,,,,,,,,,,,,,,,,,0.0,0.0,3.89839744568,12.4792375565,12.509595871,-1.0,-1.0,,,,,,,,,,,,,,,,,,,,,,,,,,,,,,,,,,,,,,,,,,,,,,,,,,,,,,,,,,,,,,,,,,,,,,,,,,,,,,,,,,,,,,,,,,,,,,,,,,,,,,,107749292,PX4FMU_V1,6770a48684aa339926e77855ea4d0b9491666ebc,test,305419904.0
0.0190639961511,-0.00110450503416,-2.17134284973,0.0403683185577,-0.0354290828109,-0.00601015985012,-0.338791757822,-0.628451108932,-9.89236831665,0.0,0.0,-2.08349370956,0.0,-0.338791757822,-0.628451108932,-9.89236831665,0.0536580421031,-0.0518377348781,0.00934850051999,-0.125896558166,0.139353007078,0.421787559986,1015.80999756,-21.2880096436,31.0499992371,0.0,0.0,0.0,0.0,-0.209092646837,0.0,0.0,0.0,0.0,-0.00803448725492,0.0,0.0,0.0,10,1,0,20.0,1.51851093769,0.0,0.0,2.47155547142,-2.09553003311,,,,,,,,,,,,,,,,-0.0176394730806,0.00532375322655,0.014077312313,0.0,0,2,0,1.0,0,1,0.0,-0.0,0.0,0.0272277221084,0.99816006422,0.656641602516,-0.998161792755,0.0,7,0,10.0,10.0,10.0,10.0,0.0,0.0,0.0,0.0,,,,-0.0953199416399,0.00552286440507,0.0878385826945,0,0,0.0,0.0,4.52400016785,0,77,,,,,,,,,,,,,,,,,,,,,,,,,,,,,,0.0,0.0,3.89839744568,12.4708566666,12.5095262527,-1.0,-1.0,,,,,,,,,,,,,,,,,,,,,,,,,,,,,,,,,,,,,,,,,,,,,,,,,,,,,,,,,,,,,,,,,,,,,,,,,,,,,,,,,,,,,,,,,,,,,,,,,,,,,,,107770085,PX4FMU_V1,6770a48684aa339926e77855ea4d0b9491666ebc,test,305419904.0
0.0190643202513,-0.00130032177549,-2.16928219795,-0.035937871784,0.0230250824243,0.0174117609859,-0.0334451980889,0.0895321071148,-9.86200809479,0.0,0.0,-2.08349370956,0.0,-0.0334451980889,0.0895321071148,-9.86200809479,-0.0655093789101,0.0485598444939,0.00784041639417,-0.0736058652401,0.183461472392,0.437809497118,1015.80999756,-21.2880096436,31.0499992371,0.0,0.0,0.0,0.0,-0.207051843405,0.0,0.0,0.0,0.0,-0.00645425682887,0.0,0.0,0.0,10,1,0,20.0,1.51863098145,0.0,0.0,2.47155547142,-2.09553003311,,,,,,,,,,,,,,,,-0.00771987717599,-0.00214800052345,0.0102546550333,0.0,0,2,0,1.0,0,1,0.0,-0.0,0.0,0.0272277221084,0.99816006422,0.656641602516,-0.998161792755,0.0,7,0,10.0,10.0,10.0,10.0,0.0,0.0,0.0,0.0,,,,-0.0953215435147,0.00650200014934,0.0857761278749,14,-6,-1.62768697739,0.776266038418,4.52400016785,0,77,,,,,,,,,,,,,,,,,,,,,,,,,,,,,,0.0,0.0,3.89839744568,12.4792375565,12.5094957352,-1.0,-1.0,,,,,,,,,,,,,,,,,,,,,,,,,,,,,,,,,,,,,,,,,,,,,,,,,,,,,,,,,,,,,,,,,,,,,,,,,,,,,,,,,,,,,,,,,,,,,,,,,,,,,,,107791304,PX4FMU_V1,6770a48684aa339926e77855ea4d0b9491666ebc,test,305419904.0
0.0189684424549,-0.000982016324997,-2.17129898071,0.0395947545767,-0.0327932946384,-0.01176797878,0.0339935533702,-0.453007817268,-9.95495033264,0.0,0.0,-2.08349370956,0.0,0.0339935533702,-0.453007817268,-9.95495033264,0.0620821639895,-0.0628078654408,-0.00176915188786,-0.137822493911,0.138520792127,0.428908407688,1015.78997803,-21.1218662262,31.0499992371,0.0,0.0,0.0,0.0,-0.207051843405,0.0,0.0,0.0,0.0,-0.00645425682887,0.0,0.0,0.0,10,1,0,20.0,1.51863098145,0.0,0.0,2.47155547142,-2.09553003311,,,,,,,,,,,,,,,,-0.00771987717599,-0.00214800052345,0.0102546550333,0.0,0,2,0,1.0,0,1,0.0,-0.0,0.0,0.0272277221084,0.99816006422,0.656641602516,-0.998161792755,0.0,7,0,10.0,10.0,10.0,10.0,0.0,0.0,0.0,0.0,,,,-0.0953215435147,0.00650200014934,0.0857761278749,14,-6,-1.62768697739,0.776266038418,4.52400016785,0,77,,,,,,,,,,,,,,,,,,,,,,,,,,,,,,0.0,0.0,3.89839744568,12.4792375565,12.5094957352,-1.0,-1.0,,,,,,,,,,,,,,,,,,,,,,,,,,,,,,,,,,,,,,,,,,,,,,,,,,,,,,,,,,,,,,,,,,,,,,,,,,,,,,,,,,,,,,,,,,,,,,,,,,,,,,,107813307,PX4FMU_V1,6770a48684aa339926e77855ea4d0b9491666ebc,test,305419904.0
0.0193300899118,-0.00143767998088,-2.17163729668,0.0446025915444,-0.044779188931,0.0163838639855,-1.03108847141,-1.00671052933,-9.75318717957,0.0,0.0,-2.08349370956,0.0,-1.03108847141,-1.00671052933,-9.75318717957,0.0266171842813,-0.0265898704529,0.0473296493292,-0.139657258987,0.170977935195,0.434249043465,1015.83996582,-21.5372200012,31.0499992371,0.0,0.0,0.0,0.0,-0.191863745451,0.0,0.0,0.0,0.0,-0.00347951427102,0.0,0.0,0.0,10,1,0,20.0,1.519713521,0.0,0.0,2.47155547142,-2.09553003311,,,,,,,,,,,,,,,,-0.0183628872037,0.00675584468991,0.0107618877664,0.0,0,2,0,1.0,0,1,0.0,-0.0,0.0,0.0247524753213,1.0,0.656641602516,-0.998161792755,0.0,7,0,10.0,10.0,10.0,10.0,0.0,0.0,0.0,0.0,,,,-0.0966503918171,0.00718885008246,0.0881297811866,6,2,-0.180549487472,-0.0643424540758,0.300000011921,0,77,,,,,,,,,,,,,,,,,,,,,,,,,,,,,,0.0,0.0,3.89839744568,12.4792375565,12.5088348389,-1.0,-1.0,,,,,,,,,,,,,,,,,,,,,,,,,,,,,,,,,,,,,,,,,,,,,,,,,,,,,,,,,,,,,,,,,,,,,,,,,,,,,,,,,,,,,,,,,,,,,,,,,,,,,,,108009766,PX4FMU_V1,6770a48684aa339926e77855ea4d0b9491666ebc,test,305419904.0
0.0187280140817,-0.000994843081571,-2.17079973221,-0.0493222698569,0.0451188236475,0.00241147354245,0.712614357471,0.506573557854,-9.99434280396,0.0,0.0,-2.08349370956,0.0,0.712614357471,0.506573557854,-9.99434280396,-0.0539732277393,0.0529663935304,-0.0287819355726,-0.0864492058754,0.146843135357,0.427128195763,1015.80999756,-21.2880096436,31.0499992371,0.0,0.0,0.0,0.0,-0.187735497952,0.0,0.0,0.0,0.0,-0.000973612244707,0.0,0.0,0.0,10,1,0,20.0,1.51983475685,0.0,0.0,2.47155547142,-2.09553003311,,,,,,,,,,,,,,,,-0.00576131138951,-0.00521876150742,0.012732793577,0.0,0,2,0,1.0,0,1,0.0,-0.0,0.0,0.0247524753213,0.99816006422,0.656641602516,-0.998161792755,0.0,7,0,10.0,10.0,10.0,10.0,0.0,0.0,0.0,0.0,,,,-0.0936400517821,0.00497450353578,0.0872967615724,0,0,0.0,0.0,0.300000011921,0,77,,,,,,,,,,,,,,,,,,,,,,,,,,,,,,0.0,0.0,3.89839744568,12.4792375565,12.508805275,-1.0,-1.0,,,,,,,,,,,,,,,,,,,,,,,,,,,,,,,,,,,,,,,,,,,,,,,,,,,,,,,,,,,,,,,,,,,,,,,,,,,,,,,,,,,,,,,,,,,,,,,,,,,,,,,108030230,PX4FMU_V1,6770a48684aa339926e77855ea4d0b9491666ebc,test,305419904.0
0.0189926568419,-0.00106469471939,-2.17155885696,0.0475173257291,-0.0473385751247,-0.00959960278124,-0.395445346832,-0.636575818062,-10.0237035751,0.0,0.0,-2.08349370956,0.0,-0.395445346832,-0.636575818062,-10.0237035751,0.069998331368,-0.0733743831515,0.0170717705041,-0.101127289236,0.149339839816,0.428908407688,1015.83996582,-21.5372200012,31.0399990082,0.0,0.0,0.0,0.0,-0.185470297933,0.0,0.0,0.0,0.0,-0.00160872074775,0.0,0.0,0.0,10,1,0,20.0,1.51995480061,0.0,0.0,2.47155547142,-2.09553003311,,,,,,,,,,,,,,,,-0.0185224730521,0.00684610754251,0.0146481934935,0.0,0,2,0,1.0,0,1,0.0,-0.0,0.0,0.0247524753213,0.99816006422,0.656641602516,-0.998161792755,0.0,7,0,10.0,10.0,10.0,10.0,0.0,0.0,0.0,0.0,,,,-0.0949632376432,0.00532379327342,0.0880550146103,-4,-2,0.11949429661,0.0648313090205,0.300000011921,51,77,,,,,,,,,,,,,,,,,,,,,,,,,,,,,,0.0,0.0,3.89839744568,12.4792375565,12.5087461472,-1.0,-1.0,,,,,,,,,,,,,,,,,,,,,,,,,,,,,,,,,,,,,,,,,,,,,,,,,,,,,,,,,,,,,,,,,,,,,,,,,,,,,,,,,,,,,,,,,,,,,,,,,,,,,,,108051626,PX4FMU_V1,6770a48684aa339926e77855ea4d0b9491666ebc,test,305419904.0
0.018783589825,-0.00111290346831,-2.17136025429,-0.0487707965076,0.0388920903206,0.00763766746968,0.52619946003,0.617060303688,-9.90779399872,0.0,0.0,-2.08349370956,0.0,0.52619946003,0.617060303688,-9.90779399872,-0.0600299835205,0.0546093247831,-0.018777737394,-0.111218452454,0.185125932097,0.428908407688,1015.82000732,-21.3710803986,31.0399990082,0.0,0.0,0.0,0.0,-0.182060912251,0.0,0.0,0.0,0.0,0.000597489473876,0.0,0.0,0.0,10,1,0,20.0,1.52007472515,0.0,0.0,2.47155547142,-2.09553003311,,,,,,,,,,,,,,,,-0.00586912594736,-0.00433254009113,0.0120327724144,0.0,0,2,0,1.0,0,1,0.0,-0.0,0.0,0.0272277221084,0.99816006422,0.656641602516,-0.998161792755,0.0,7,0,10.0,10.0,10.0,10.0,0.0,0.0,0.0,0.0,,,,-0.0939179211855,0.00556485634297,0.087856143713,8,5,-0.227345958352,-0.165449410677,0.300000011921,0,77,,,,,,,,,,,,,,,,,,,,,,,,,,,,,,0.0,0.0,3.89839744568,12.4792375565,12.5086870193,-1.0,-1.0,,,,,,,,,,,,,,,,,,,,,,,,,,,,,,,,,,,,,,,,,,,,,,,,,,,,,,,,,,,,,,,,,,,,,,,,,,,,,,,,,,,,,,,,,,,,,,,,,,,,,,,108073942,PX4FMU_V1,6770a48684aa339926e77855ea4d0b9491666ebc,test,305419904.0
0.0189411453903,-0.000959666038398,-2.16982030869,0.0430438891053,-0.0393306016922,-0.0155308423564,0.0392644964159,-0.598099350929,-9.85790348053,0.0,0.0,-2.08349370956,0.0,0.0392644964159,-0.598099350929,-9.85790348053,0.0674566105008,-0.0767449215055,0.00291156256571,-0.100209906697,0.163487836719,0.430688619614,1015.80999756,-21.2880096436,31.0399990082,0.0,0.0,0.0,0.0,-0.181187048554,0.0,0.0,0.0,0.0,0.000236008418142,0.0,0.0,0.0,10,1,0,20.0,1.52013516426,0.0,0.0,2.47155547142,-2.09553003311,,,,,,,,,,,,,,,,-0.0179074443877,0.00573679851368,0.0152772376314,0.0,0,2,0,1.0,0,1,0.0,-0.0,0.0,0.0247524753213,1.0,0.656641602516,-0.998161792755,0.0,7,0,10.0,10.0,10.0,10.0,0.0,0.0,0.0,0.0,,,,-0.0947057008743,0.00479862000793,0.0863174051046,0,0,0.0,0.0,0.300000011921,0,77,,,,,,,,,,,,,,,,,,,,,,,,,,,,,,0.0,0.0,3.89839744568,12.4708566666,12.5086193085,-1.0,-1.0,,,,,,,,,,,,,,,,,,,,,,,,,,,,,,,,,,,,,,,,,,,,,,,,,,,,,,,,,,,,,,,,,,,,,,,,,,,,,,,,,,,,,,,,,,,,,,,,,,,,,,,108094759,PX4FMU_V1,6770a48684aa339926e77855ea4d0b9491666ebc,test,305419904.0
0.0191196128726,-0.00141033367254,-2.17006516457,-0.0304856859148,0.0207743104547,0.0289218351245,-0.182509317994,-0.199972435832,-9.85663890839,0.0,0.0,-2.08349370956,0.0,-0.182509317994,-0.199972435832,-9.85663890839,-0.0679905116558,0.0567237399518,0.0188116114587,-0.0937882438302,0.186790406704,0.428908407688,1015.84997559,-21.6202907562,31.0399990082,0.0,0.0,0.0,0.0,-0.17747721076,0.0,0.0,0.0,0.0,0.00276371976361,0.0,0.0,0.0,10,1,0,20.0,1.52025520802,0.0,0.0,2.47155547142,-2.09553003311,,,,,,,,,,,,,,,,-0.00846460368484,-0.00178388785571,0.00864539854228,0.0,0,2,0,1.0,0,1,0.0,-0.0,0.0,0.0247524753213,1.0,0.656641602516,-0.998161792755,0.0,7,0,10.0,10.0,10.0,10.0,0.0,0.0,0.0,0.0,,,,-0.0955980196595,0.00705209514126,0.0865578204393,0,0,0.0,0.0,0.300000011921,0,77,,,,,,,,,,,,,,,,,,,,,,,,,,,,,,0.0,0.0,3.89839744568,12.4708566666,12.5085811615,-1.0,-1.0,,,,,,,,,,,,,,,,,,,,,,,,,,,,,,,,,,,,,,,,,,,,,,,,,,,,,,,,,,,,,,,,,,,,,,,,,,,,,,,,,,,,,,,,,,,,,,,,,,,,,,,108115954,PX4FMU_V1,6770a48684aa339926e77855ea4d0b9491666ebc,test,305419904.0
0.018854027614,-0.000891961681191,-2.17040801048,0.0397686511278,-0.0332210734487,-0.0141930282116,0.148227721453,-0.445431858301,-9.86790466309,0.0,0.0,-2.08349370956,0.0,0.148227721453,-0.445431858301,-9.86790466309,0.0719408765435,-0.0739955306053,-0.000719315838069,-0.100209906697,0.173474654555,0.431578755379,1015.80999756,-21.2880096436,31.0399990082,0.0,0.0,0.0,0.0,-0.174104124308,0.0,0.0,0.0,0.0,0.00293009984307,0.0,0.0,0.0,10,1,0,20.0,1.52037513256,0.0,0.0,2.47155547142,-2.09553003311,,,,,,,,,,,,,,,,-0.0174250360578,0.00489854859188,0.0151648335159,0.0,0,2,0,1.0,0,1,0.0,-0.0,0.0,0.0272277221084,0.99816006422,0.656641602516,-0.998161792755,0.0,7,0,10.0,10.0,10.0,10.0,0.0,0.0,0.0,0.0,,,,-0.0942700952291,0.00446006981656,0.0869058594108,0,0,0.0,0.0,0.300000011921,0,77,,,,,,,,,,,,,,,,,,,,,,,,,,,,,,0.0,0.0,3.89839744568,12.4708566666,12.5085134506,-1.0,-1.0,,,,,,,,,,,,,,,,,,,,,,,,,,,,,,,,,,,,,,,,,,,,,,,,,,,,,,,,,,,,,,,,,,,,,,,,,,,,,,,,,,,,,,,,,,,,,,,,,,,,,,,108138248,PX4FMU_V1,6770a48684aa339926e77855ea4d0b9491666ebc,test,305419904.0
0.0191159024835,-0.00138388108462,-2.16924381256,-0.028643341735,0.0176974460483,0.0291292276233,-0.165718212724,-0.259140372276,-9.78848648071,0.0,0.0,-2.08349370956,0.0,-0.165718212724,-0.259140372276,-9.78848648071,-0.0665103048086,0.0525996312499,0.023036506027,-0.0708537399769,0.176803588867,0.421787559986,1015.85998535,-21.7033576965,31.0299987793,0.0,0.0,0.0,0.0,-0.171521633863,0.0,0.0,0.0,0.0,0.00384134193882,0.0,0.0,0.0,10,1,0,20.0,1.52049601078,0.0,0.0,2.47155547142,-2.09553003311,,,,,,,,,,,,,,,,-0.0087016960606,-0.001401088899,0.00849112682045,0.0,0,2,0,1.0,0,1,0.0,-0.0,0.0,0.0272277221084,0.99816006422,0.656641602516,-0.998161792755,0.0,7,0,10.0,10.0,10.0,10.0,0.0,0.0,0.0,0.0,,,,-0.0955794677138,0.00691983895376,0.0857367366552,0,0,0.0,0.0,0.300000011921,0,77,,,,,,,,,,,,,,,,,,,,,,,,,,,,,,0.0,0.0,3.89839744568,12.4708566666,12.508439064,-1.0,-1.0,,,,,,,,,,,,,,,,,,,,,,,,,,,,,,,,,,,,,,,,,,,,,,,,,,,,,,,,,,,,,,,,,,,,,,,,,,,,,,,,,,,,,,,,,,,,,,,,,,,,,,,108159344,PX4FMU_V1,6770a48684aa339926e77855ea4d0b9491666ebc,test,305419904.0
0.0185711793602,-0.000690809101798,-2.17045879364,0.01670255512,-0.00571266002953,-0.0267238654196,0.814866960049,0.216374948621,-9.77779865265,0.0,0.0,-2.08349370956,0.0,0.814866960049,0.216374948621,-9.77779865265,0.064896479249,-0.0510070957243,-0.0327948667109,-0.138739868999,0.137688547373,0.441369891167,1015.85998535,-21.7033576965,31.0299987793,0.0,0.0,0.0,0.0,-0.164861872792,0.0,0.0,0.0,0.0,0.0057505806908,0.0,0.0,0.0,10,1,0,20.0,1.5206155777,0.0,0.0,2.47155547142,-2.09553003311,,,,,,,,,,,,,,,,-0.017289550975,0.00451808143407,0.016743581742,0.0,0,2,0,1.0,0,1,0.0,-0.0,0.0,0.0272277221084,0.99816006422,0.656641602516,-0.998161792755,0.0,7,0,10.0,10.0,10.0,10.0,0.0,0.0,0.0,0.0,,,,-0.0928558781743,0.00345424143597,0.0869587361813,0,0,0.0,0.0,0.300000011921,0,77,,,,,,,,,,,,,,,,,,,,,,,,,,,,,,0.0,0.0,3.89839744568,12.4792375565,12.5083723068,-1.0,-1.0,,,,,,,,,,,,,,,,,,,,,,,,,,,,,,,,,,,,,,,,,,,,,,,,,,,,,,,,,,,,,,,,,,,,,,,,,,,,,,,,,,,,,,,,,,,,,,,,,,,,,,,108180609,PX4FMU_V1,6770a48684aa339926e77855ea4d0b9491666ebc,test,305419904.0
0.0191527940333,-0.00140581373125,-2.17151331902,-0.0285768434405,0.0144368940964,0.036156039685,-0.298074632883,-0.31506600976,-9.8205537796,0.0,0.0,-2.08349370956,0.0,-0.298074632883,-0.31506600976,-9.8205537796,-0.072255499661,0.0515330806375,0.0418984815478,-0.129566058517,0.143514186144,0.441369891167,1015.82000732,-21.3710803986,31.0299987793,0.0,0.0,0.0,0.0,-0.163536265492,0.0,0.0,0.0,0.0,0.00665225600824,0.0,0.0,0.0,10,1,0,20.0,1.52067542076,0.0,0.0,2.47155547142,-2.09553003311,,,,,,,,,,,,,,,,-0.00873431749642,-0.000962962454651,0.00777752650902,0.0,0,2,0,1.0,0,1,0.0,-0.0,0.0,0.0247524753213,1.0,0.656641602516,-0.998161792755,0.0,7,0,10.0,10.0,10.0,10.0,0.0,0.0,0.0,0.0,,,,-0.0957639068365,0.00702949054539,0.0880062133074,0,0,0.0,0.0,4.51000022888,0,77,,,,,,,,,,,,,,,,,,,,,,,,,,,,,,0.0,0.0,3.89839744568,12.4792375565,12.508313179,-1.0,-1.0,,,,,,,,,,,,,,,,,,,,,,,,,,,,,,,,,,,,,,,,,,,,,,,,,,,,,,,,,,,,,,,,,,,,,,,,,,,,,,,,,,,,,,,,,,,,,,,,,,,,,,,108203904,PX4FMU_V1,6770a48684aa339926e77855ea4d0b9491666ebc,test,305419904.0
0.018617130816,-0.000713630754035,-2.16945981979,0.03235848248,-0.0193169172853,-0.0287221614271,0.598299741745,-0.113438181579,-9.77526187897,0.0,0.0,-2.08349370956,0.0,0.598299741745,-0.113438181579,-9.77526187897,0.0758213847876,-0.0685848519206,-0.0317295044661,-0.141492024064,0.142681956291,0.432468831539,1015.82995605,-21.4541511536,31.0100002289,0.0,0.0,0.0,0.0,-0.159351214767,0.0,0.0,0.0,0.0,0.00691922521219,0.0,0.0,0.0,10,1,0,20.0,1.52079594135,0.0,0.0,2.47155547142,-2.09553003311,,,,,,,,,,,,,,,,-0.0163077358156,0.00297508598305,0.0172022599727,0.0,0,2,0,1.0,0,1,0.0,-0.0,0.0,0.0272277221084,0.99816006422,0.656641602516,-0.998161792755,0.0,7,0,10.0,10.0,10.0,10.0,0.0,0.0,0.0,0.0,,,,-0.0930856466293,0.00356835965067,0.0859595686197,1,-13,-0.143704861403,1.61694180965,4.51000022888,67,77,,,,,,,,,,,,,,,,,,,,,,,,,,,,,,0.0,0.0,3.89839744568,12.4792375565,12.5082473755,-1.0,-1.0,,,,,,,,,,,,,,,,,,,,,,,,,,,,,,,,,,,,,,,,,,,,,,,,,,,,,,,,,,,,,,,,,,,,,,,,,,,,,,,,,,,,,,,,,,,,,,,,,,,,,,,108226249,PX4FMU_V1,6770a48684aa339926e77855ea4d0b9491666ebc,test,305419904.0
0.0192445628345,-0.00146163627505,-2.17209124565,-0.01318648085,-5.73331199121e-05,0.0335307717323,-0.615078389645,-0.586255013943,-9.81082248688,0.0,0.0,-2.08349370956,0.0,-0.615078389645,-0.586255013943,-9.81082248688,-0.0628507435322,0.0418168306351,0.0512933880091,-0.141492024064,0.135191857815,0.443150103092,1015.80999756,-21.2880096436,31.0100002289,0.0,0.0,0.0,0.0,-0.15637204051,0.0,0.0,0.0,0.0,0.00954000838101,0.0,0.0,0.0,10,1,0,20.0,1.5209171772,0.0,0.0,2.47155547142,-2.09553003311,,,,,,,,,,,,,,,,-0.0107947112992,0.000957575801294,0.00825789012015,0.0,0,2,0,1.0,0,1,0.0,-0.0,0.0,0.0247524753213,0.99816006422,0.656641602516,-0.998161792755,0.0,7,0,10.0,10.0,10.0,10.0,0.0,0.0,0.0,0.0,,,,-0.0962227284908,0.00730863492936,0.0885833725333,-7,25,0.889958500862,-3.12821960449,4.51000022888,0,77,,,,,,,,,,,,,,,,,,,,,,,,,,,,,,0.0,0.0,3.89839744568,12.4708566666,12.5082101822,-1.0,-1.0,,,,,,,,,,,,,,,,,,,,,,,,,,,,,,,,,,,,,,,,,,,,,,,,,,,,,,,,,,,,,,,,,,,,,,,,,,,,,,,,,,,,,,,,,,,,,,,,,,,,,,,108247085,PX4FMU_V1,6770a48684aa339926e77855ea4d0b9491666ebc,test,305419904.0
0.0184468682855,-0.000663151324261,-2.16843152046,0.00215082103387,0.0131445880979,-0.0234330072999,1.06132876873,0.486699700356,-9.72348499298,0.0,0.0,-2.08349370956,0.0,1.06132876873,0.486699700356,-9.72348499298,0.0542290881276,-0.0249307174236,-0.0485844798386,-0.0745232477784,0.173474654555,0.423567771912,1015.84997559,-21.6202907562,31.0100002289,0.0,0.0,0.0,0.0,-0.15345479548,0.0,0.0,0.0,0.0,0.00938376318663,0.0,0.0,0.0,10,1,0,20.0,1.52103590965,0.0,0.0,2.47155547142,-2.09553003311,,,,,,,,,,,,,,,,-0.0122700687498,-0.00127772381529,0.0162547007203,0.0,0,2,0,1.0,0,1,0.0,-0.0,0.0,0.0247524753213,0.99816006422,0.656641602516,-0.998161792755,0.0,7,0,10.0,10.0,10.0,10.0,0.0,0.0,0.0,0.0,,,,-0.0922343283892,0.0033159435261,0.0849316641688,-6,-16,0.854067206383,1.97766506672,4.51000022888,0,77,,,,,,,,,,,,,,,,,,,,,,,,,,,,,,0.0,0.0,3.89839744568,12.4792375565,12.5081529617,-1.0,-1.0,,,,,,,,,,,,,,,,,,,,,,,,,,,,,,,,,,,,,,,,,,,,,,,,,,,,,,,,,,,,,,,,,,,,,,,,,,,,,,,,,,,,,,,,,,,,,,,,,,,,,,,108268356,PX4FMU_V1,6770a48684aa339926e77855ea4d0b9491666ebc,test,305419904.0
0.0192937068641,-0.00144048256334,-2.17359280586,-0.0136815635487,0.000538804510143,0.0396131053567,-0.504000067711,-0.587655901909,-9.76101398468,0.0,0.0,-2.08349370956,0.0,-0.504000067711,-0.587655901909,-9.76101398468,-0.0655612796545,0.0405038148165,0.0634704455733,-0.135070338845,0.12603725493,0.443150103092,1015.7699585,-20.9557189941,31.0100002289,0.0,0.0,0.0,0.0,-0.150454476476,0.0,0.0,0.0,0.0,0.0115889795125,0.0,0.0,0.0,10,1,0,20.0,1.52115595341,0.0,0.0,2.47155547142,-2.09553003311,,,,,,,,,,,,,,,,-0.010762296617,0.000866327201948,0.00757079664618,0.0,0,2,0,1.0,0,1,0.0,-0.0,0.0,0.0247524753213,0.99816006422,0.656641602516,-0.996323525906,0.0,7,0,10.0,10.0,10.0,10.0,0.0,0.0,0.0,0.0,,,,-0.0964684635401,0.00720286043361,0.0900850817561,-15,4,1.87278032303,-0.569900810719,4.51000022888,0,77,,,,,,,,,,,,,,,,,,,,,,,,,,,,,,0.0,0.0,3.89839744568,12.4708566666,12.5080785751,-1.0,-1.0,,,,,,,,,,,,,,,,,,,,,,,,,,,,,,,,,,,,,,,,,,,,,,,,,,,,,,,,,,,,,,,,,,,,,,,,,,,,,,,,,,,,,,,,,,,,,,,,,,,,,,,108290562,PX4FMU_V1,6770a48684aa339926e77855ea4d0b9491666ebc,test,305419904.0
0.0184053964913,-0.000703192781657,-2.16946601868,-0.00354848220013,0.0179980341345,-0.0208114646375,1.05002367496,0.622332751751,-9.81756019592,0.0,0.0,-2.08349370956,0.0,1.05002367496,0.622332751751,-9.81756019592,0.051364056766,-0.0138487610966,-0.053599871695,-0.103879407048,0.18845488131,0.412886500359,1015.7699585,-20.9557189941,31.0100002289,0.0,0.0,0.0,0.0,-0.151675924659,0.0,0.0,0.0,0.0,0.0091520389542,0.0,0.0,0.0,10,1,0,20.0,1.52121710777,0.0,0.0,2.47155547142,-2.09553003311,,,,,,,,,,,,,,,,-0.0115022026002,-0.00188264343888,0.0160166081041,0.0,0,2,0,1.0,0,1,0.0,-0.0,0.0,0.0272277221084,0.99816006422,0.656641602516,-0.998161792755,0.0,7,0,10.0,10.0,10.0,10.0,0.0,0.0,0.0,0.0,,,,-0.09202696383,0.00351616065018,0.0859659165144,0,0,0.0,0.0,4.51000022888,0,77,,,,,,,,,,,,,,,,,,,,,,,,,,,,,,0.0,0.0,3.89839744568,12.4876184464,12.5080213547,-1.0,-1.0,,,,,,,,,,,,,,,,,,,,,,,,,,,,,,,,,,,,,,,,,,,,,,,,,,,,,,,,,,,,,,,,,,,,,,,,,,,,,,,,,,,,,,,,,,,,,,,,,,,,,,,108311796,PX4FMU_V1,6770a48684aa339926e77855ea4d0b9491666ebc,test,305419904.0
0.0193861406296,-0.00144099700265,-2.17035675049,0.0232610348612,-0.027867116034,0.0130214476958,-0.974311947823,-0.987900733948,-9.727227211,0.0,0.0,-2.08349370956,0.0,-0.974311947823,-0.987900733948,-9.727227211,-0.0199189875275,0.00286707119085,0.0520176328719,-0.0901187136769,0.183461472392,0.427128195763,1015.82995605,-21.4541511536,31.0100002289,0.0,0.0,0.0,0.0,-0.148117527366,0.0,0.0,0.0,0.0,0.0106984749436,0.0,0.0,0.0,10,1,0,20.0,1.52133703232,0.0,0.0,2.47155547142,-2.09553003311,,,,,,,,,,,,,,,,-0.0156249171123,0.00455943215638,0.0110741518438,0.0,0,2,0,1.0,0,1,0.0,-0.0,0.0,0.0272277221084,1.0,0.656641602516,-0.998161792755,0.0,7,0,10.0,10.0,10.0,10.0,0.0,0.0,0.0,0.0,,,,-0.0969306379557,0.00720543973148,0.0868491232395,0,0,0.0,0.0,4.51000022888,0,77,,,,,,,,,,,,,,,,,,,,,,,,,,,,,,0.0,0.0,3.89839744568,12.4708566666,12.5079469681,-1.0,-1.0,,,,,,,,,,,,,,,,,,,,,,,,,,,,,,,,,,,,,,,,,,,,,,,,,,,,,,,,,,,,,,,,,,,,,,,,,,,,,,,,,,,,,,,,,,,,,,,,,,,,,,,108332824,PX4FMU_V1,6770a48684aa339926e77855ea4d0b9491666ebc,test,305419904.0
0.0183980278671,-0.000750722072553,-2.17184972763,-0.0143674444407,0.023496998474,-0.0119262831286,1.00810909271,0.713115692139,-9.83410358429,0.0,0.0,-2.08349370956,0.0,1.00810909271,0.713115692139,-9.83410358429,0.0342975854874,-0.000519600464031,-0.0480307713151,-0.129566058517,0.16681677103,0.412886500359,1015.84997559,-21.6202907562,31.0100002289,0.0,0.0,0.0,0.0,-0.143509283662,0.0,0.0,0.0,0.0,0.0116202533245,0.0,0.0,0.0,10,1,0,20.0,1.52145779133,0.0,0.0,2.47155547142,-2.09553003311,,,,,,,,,,,,,,,,-0.0100909499452,-0.00256661255844,0.0150412991643,0.0,0,2,0,1.0,0,1,0.0,-0.0,0.0,0.0272277221084,1.0,0.656641602516,-0.998161792755,0.0,7,0,10.0,10.0,10.0,10.0,0.0,0.0,0.0,0.0,,,,-0.0919901430607,0.00375382369384,0.0883490368724,0,0,0.0,0.0,4.51000022888,0,77,,,,,,,,,,,,,,,,,,,,,,,,,,,,,,0.0,0.0,3.89839744568,12.4708566666,12.5079097748,-1.0,-1.0,,,,,,,,,,,,,,,,,,,,,,,,,,,,,,,,,,,,,,,,,,,,,,,,,,,,,,,,,,,,,,,,,,,,,,,,,,,,,,,,,,,,,,,,,,,,,,,,,,,,,,,108355275,PX4FMU_V1,6770a48684aa339926e77855ea4d0b9491666ebc,test,305419904.0
0.0193283706903,-0.00139637547545,-2.17298316956,0.0235421508551,-0.0269334111363,0.0118027338758,-0.762512922287,-1.06371974945,-9.65400028229,0.0,0.0,-2.08349370956,0.0,-0.762512922287,-1.06371974945,-9.65400028229,-0.0165798459202,-0.00389196700417,0.0534637346864,-0.0937882438302,0.142681956291,0.445820450783,1015.85998535,-21.7033576965,31.0100002289,0.0,0.0,0.0,0.0,-0.137781172991,0.0,0.0,0.0,0.0,0.0156159242615,0.0,0.0,0.0,10,1,0,20.0,1.52157723904,0.0,0.0,2.47155547142,-2.09553003311,,,,,,,,,,,,,,,,-0.0156239084899,0.00440904358402,0.0116509655491,0.0,0,2,0,1.0,0,1,0.0,-0.0,0.0,0.0272277221084,1.0,0.656641602516,-0.998161792755,0.0,7,0,10.0,10.0,10.0,10.0,0.0,0.0,0.0,0.0,,,,-0.0966417640448,0.0069823092781,0.0894758328795,10,25,-1.33089435101,-3.1774930954,4.51000022888,55,77,,,,,,,,,,,,,,,,,,,,,,,,,,,,,,0.0,0.0,3.89839744568,12.4708566666,12.5078439713,-1.0,-1.0,,,,,,,,,,,,,,,,,,,,,,,,,,,,,,,,,,,,,,,,,,,,,,,,,,,,,,,,,,,,,,,,,,,,,,,,,,,,,,,,,,,,,,,,,,,,,,,,,,,,,,,108376169,PX4FMU_V1,6770a48684aa339926e77855ea4d0b9491666ebc,test,305419904.0
0.0183618962765,-0.000806193856988,-2.17232584953,-0.0148514788598,0.0234285201877,-0.0158435758203,0.951695919037,0.728986382484,-9.88280010223,0.0,0.0,-2.08349370956,0.0,0.951695919037,0.728986382484,-9.88280010223,0.0333686284721,0.00453952979296,-0.0560458302498,-0.0974577516317,0.141849726439,0.445820450783,1015.85998535,-21.7033576965,31.0100002289,0.0,0.0,0.0,0.0,-0.129228189588,0.0,0.0,0.0,0.0,0.018237086013,0.0,0.0,0.0,10,1,0,20.0,1.52169716358,0.0,0.0,2.47155547142,-2.09553003311,,,,,,,,,,,,,,,,-0.0100045381114,-0.00252165156417,0.0157002359629,0.0,0,2,0,1.0,0,1,0.0,-0.0,0.0,0.0272277221084,1.0,0.656641602516,-0.998161792755,0.0,7,0,10.0,10.0,10.0,10.0,0.0,0.0,0.0,0.0,,,,-0.0918094664812,0.00403120042756,0.0888246521354,0,0,0.0,0.0,4.51000022888,0,77,,,,,,,,,,,,,,,,,,,,,,,,,,,,,,0.0,0.0,3.89839744568,12.4792375565,12.5077781677,-1.0,-1.0,,,,,,,,,,,,,,,,,,,,,,,,,,,,,,,,,,,,,,,,,,,,,,,,,,,,,,,,,,,,,,,,,,,,,,,,,,,,,,,,,,,,,,,,,,,,,,,,,,,,,,,108398826,PX4FMU_V1,6770a48684aa339926e77855ea4d0b9491666ebc,test,305419904.0
0.0193050187081,-0.00131771934684,-2.1725025177,0.0298375636339,-0.0276059750468,0.0038233269006,-0.641692578793,-1.04545152187,-9.64485359192,0.0,0.0,-2.08349370956,0.0,-0.641692578793,-1.04545152187,-9.64485359192,-0.00606620172039,-0.00704500172287,0.0531230382621,-0.0928708612919,0.170145705342,0.4262380898,1015.85998535,-21.7033576965,31.0100002289,0.0,0.0,0.0,0.0,-0.125935658813,0.0,0.0,0.0,0.0,0.0197170842439,0.0,0.0,0.0,10,1,0,20.0,1.52175748348,0.0,0.0,2.47155547142,-2.09553003311,,,,,,,,,,,,,,,,-0.0164271369576,0.00444534840062,0.0127759110183,0.0,0,2,0,1.0,0,1,0.0,-0.0,0.0,0.0272277221084,1.0,0.656641602516,-0.998161792755,0.0,7,0,10.0,10.0,10.0,10.0,0.0,0.0,0.0,0.0,,,,-0.0965250357985,0.00658901175484,0.0889960601926,0,0,0.0,0.0,4.51000022888,0,77,,,,,,,,,,,,,,,,,,,,,,,,,,,,,,0.0,0.0,3.89839744568,12.4708566666,12.5077123642,-1.0,-1.0,,,,,,,,,,,,,,,,,,,,,,,,,,,,,,,,,,,,,,,,,,,,,,,,,,,,,,,,,,,,,,,,,,,,,,,,,,,,,,,,,,,,,,,,,,,,,,,,,,,,,,,108419479,PX4FMU_V1,6770a48684aa339926e77855ea4d0b9491666ebc,test,305419904.0
0.018430583179,-0.00101767166052,-2.17343044281,-0.0457118414342,0.0318520665169,0.0149751361459,0.330380529165,0.935783267021,-10.0057201385,0.0,0.0,-2.08349370956,0.0,0.330380529165,0.935783267021,-10.0057201385,-0.0262131411582,0.0371685996652,-0.0293180309236,-0.121309638023,0.149339839816,0.432468831539,1015.80999756,-21.2880096436,30.9899997711,0.0,0.0,0.0,0.0,-0.121194690466,0.0,0.0,0.0,0.0,0.0219540949911,0.0,0.0,0.0,10,1,0,20.0,1.52187728882,0.0,0.0,2.47155547142,-2.09553003311,,,,,,,,,,,,,,,,-0.00603733537719,-0.00347924395464,0.0112428367138,0.0,0,2,0,1.0,0,1,0.0,-0.0,0.0,0.0346534661949,1.0,0.656641602516,-0.998161792755,0.0,7,0,10.0,10.0,10.0,10.0,0.0,0.0,0.0,0.0,,,,-0.0921528860927,0.00508864875883,0.0899273827672,0,0,0.0,0.0,4.51000022888,0,77,,,,,,,,,,,,,,,,,,,,,,,,,,,,,,0.0,0.0,3.89839744568,12.4708566666,12.5076751709,-1.0,-1.0,,,,,,,,,,,,,,,,,,,,,,,,,,,,,,,,,,,,,,,,,,,,,,,,,,,,,,,,,,,,,,,,,,,,,,,,,,,,,,,,,,,,,,,,,,,,,,,,,,,,,,,108440803,PX4FMU_V1,6770a48684aa339926e77855ea4d0b9491666ebc,test,305419904.0
0.0193705074489,-0.00124722986948,-2.17477154732,0.0415816567838,-0.0342816337943,-0.00484493561089,-0.670278251171,-1.38114082813,-9.61177158356,0.0,0.0,-2.08349370956,0.0,-0.670278251171,-1.38114082813,-9.61177158356,0.00631924625486,-0.0219864994287,0.0467527136207,-0.128648683429,0.142681956291,0.434249043465,1015.80999756,-21.2880096436,30.9899997711,0.0,0.0,0.0,0.0,-0.11968935281,0.0,0.0,0.0,0.0,0.0210298430175,0.0,0.0,0.0,10,1,0,20.0,1.52199745178,0.0,0.0,2.47155547142,-2.09553003311,,,,,,,,,,,,,,,,-0.0179964378476,0.00526736257598,0.0144166005775,0.0,0,2,0,1.0,0,1,0.0,-0.0,0.0,0.0346534661949,1.0,0.656641602516,-0.998161792755,0.0,7,0,10.0,10.0,10.0,10.0,0.0,0.0,0.0,0.0,,,,-0.0968524888158,0.00623654108495,0.0912657305598,-11,-13,1.20100951195,1.43647313118,4.51000022888,0,77,,,,,,,,,,,,,,,,,,,,,,,,,,,,,,0.0,0.0,3.89839744568,12.4708566666,12.5076093674,-1.0,-1.0,,,,,,,,,,,,,,,,,,,,,,,,,,,,,,,,,,,,,,,,,,,,,,,,,,,,,,,,,,,,,,,,,,,,,,,,,,,,,,,,,,,,,,,,,,,,,,,,,,,,,,,108462691,PX4FMU_V1,6770a48684aa339926e77855ea4d0b9491666ebc,test,305419904.0
0.0184249728918,-0.00104812346399,-2.17234396935,-0.0539325475693,0.0335559286177,0.0311260316521,0.192422106862,1.00605475903,-10.0483722687,0.0,0.0,-2.08349370956,0.0,0.192422106862,1.00605475903,-10.0483722687,-0.0394193269312,0.0429453961551,-0.0151120349765,-0.0846144407988,0.18595816195,0.422677665949,1015.82000732,-21.3710803986,30.9899997711,0.0,0.0,0.0,0.0,-0.117685548961,0.0,0.0,0.0,0.0,0.0212283246219,0.0,0.0,0.0,10,1,0,20.0,1.52211749554,0.0,0.0,2.47155547142,-2.09553003311,,,,,,,,,,,,,,,,-0.00496499892324,-0.00368095235899,0.00865719281137,0.0,0,2,0,1.0,0,1,0.0,-0.0,0.0,0.0272277221084,0.99816006422,0.656641602516,-0.998161792755,0.0,7,0,10.0,10.0,10.0,10.0,0.0,0.0,0.0,0.0,,,,-0.0921248495579,0.00524091068655,0.0888406485319,-4,-29,0.498677283525,3.03159999847,4.51000022888,47,77,,,,,,,,,,,,,,,,,,,,,,,,,,,,,,0.0,0.0,3.89839744568,12.4708566666,12.5075435638,-1.0,-1.0,,,,,,,,,,,,,,,,,,,,,,,,,,,,,,,,,,,,,,,,,,,,,,,,,,,,,,,,,,,,,,,,,,,,,,,,,,,,,,,,,,,,,,,,,,,,,,,,,,,,,,,108484146,PX4FMU_V1,6770a48684aa339926e77855ea4d0b9491666ebc,test,305419904.0
0.0192853529006,-0.00107564392965,-2.17074465752,0.0547044239938,-0.0406228266656,-0.0300486907363,-0.481032550335,-1.22786080837,-9.75615978241,0.0,0.0,-2.08349370956,0.0444162450731,-0.481032550335,-1.22786080837,-9.75615978241,0.0323946252465,-0.0422974154353,0.0168465189636,-0.0864492058754,0.192616045475,0.428908407688,1015.79998779,-21.2049369812,30.9899997711,0.0,0.0,0.0,0.0,-0.116897366941,0.0,0.0,0.0,0.0,0.0199391897768,0.0,0.0,0.0,10,1,0,20.0,1.52223813534,0.0,0.0,2.47155547142,-2.09553003311,,,,,,,,,,,,,,,,-0.0196470487863,0.0059801787138,0.0175933800638,0.0444162450731,0,2,0,1.0,0,1,0.0,-0.0,0.0444162450731,0.0272277221084,0.99816006422,0.656641602516,-0.998161792755,0.0,7,0,14.0,18.0,15.0,16.0,0.0,0.0,0.0,0.0,,,,-0.0964267253876,0.00537854898721,0.0872405022383,0,0,0.0,0.0,4.51000022888,0,77,,,,,,,,,,,,,,,,,,,,,,,,,,,,,,0.0,0.0,3.89839744568,12.4289522171,12.5074291229,-1.0,-1.0,,,,,,,,,,,,,,,,,,,,,,,,,,,,,,,,,,,,,,,,,,,,,,,,,,,,,,,,,,,,,,,,,,,,,,,,,,,,,,,,,,,,,,,,,,,,,,,,,,,,,,,108506698,PX4FMU_V1,6770a48684aa339926e77855ea4d0b9491666ebc,test,305419904.0
0.018657233566,-0.00113391259219,-2.1725525856,-0.0573388077319,0.0301296077669,0.0578989982605,-0.0952728316188,0.697092115879,-10.0283527374,0.0,0.0,-2.08349370956,0.0444162450731,-0.0952728316188,0.697092115879,-10.0283527374,-0.0628828406334,0.0535069815814,0.0294656138867,-0.100209906697,0.18845488131,0.43602925539,1015.79998779,-21.2049369812,30.9899997711,0.0,0.0,0.0,0.0,-0.116673104465,0.0,0.0,0.0,0.0,0.0210812631994,0.0,0.0,0.0,10,1,0,20.0,1.52229821682,0.0,0.0,2.47155547142,-2.09553003311,,,,,,,,,,,,,,,,-0.00467314943671,-0.00317976251245,0.00467240158468,0.0444162450731,0,2,0,1.0,0,1,0.0,-0.0,0.0444162450731,0.0272277221084,0.99816006422,0.656641602516,-0.998161792755,0.0,7,0,21.0,23.0,22.0,23.0,0.0,0.0,0.0,0.0,,,,-0.0932861119509,0.00566989555955,0.0890483409166,0,0,0.0,0.0,4.51000022888,0,77,,,,,,,,,,,,,,,,,,,,,,,,,,,,,,0.0,0.0,3.89839744568,12.4289522171,12.5072889328,-1.0,-1.0,,,,,,,,,,,,,,,,,,,,,,,,,,,,,,,,,,,,,,,,,,,,,,,,,,,,,,,,,,,,,,,,,,,,,,,,,,,,,,,,,,,,,,,,,,,,,,,,,,,,,,,108527460,PX4FMU_V1,6770a48684aa339926e77855ea4d0b9491666ebc,test,305419904.0
0.0188737474382,-0.000740277348086,-2.1700387001,0.0563094168901,-0.0300219319761,-0.0621384903789,0.500157654285,-0.713295280933,-9.69802188873,0.0,0.0,-2.08349370956,0.0444162450731,0.500157654285,-0.713295280933,-9.69802188873,0.0864044725895,-0.0736002624035,-0.0672367364168,-0.0965403690934,0.195112764835,0.428908407688,1015.84997559,-21.6202907562,30.9899997711,0.0,0.0,0.0,0.0,-0.113948762417,0.0,0.0,0.0,0.0,0.0208060201257,0.0,0.0,0.0,10,1,0,20.0,1.52241814137,0.0,0.0,2.47155547142,-2.09553003311,,,,,,,,,,,,,,,,-0.019588155672,0.00438405899331,0.0223014727235,0.0444162450731,0,2,0,1.0,0,1,0.0,-0.0,0.0444162450731,0.0272277221084,0.99816006422,0.656641602516,-0.998161792755,0.0,7,0,20.0,25.0,21.0,23.0,0.0,0.0,0.0,0.0,,,,-0.0943687111139,0.0037016030401,0.0865379944444,0,0,0.0,0.0,4.51000022888,0,77,,,,,,,,,,,,,,,,,,,,,,,,,,,,,,0.0,0.0,3.89839744568,12.4624757767,12.5072441101,-1.0,-1.0,,,,,,,,,,,,,,,,,,,,,,,,,,,,,,,,,,,,,,,,,,,,,,,,,,,,,,,,,,,,,,,,,,,,,,,,,,,,,,,,,,,,,,,,,,,,,,,,,,,,,,,108548678,PX4FMU_V1,6770a48684aa339926e77855ea4d0b9491666ebc,test,305419904.0
0.0188247989863,-0.00120024359785,-2.17187190056,-0.0568646602333,0.0329522378743,0.0589685365558,0.0931283831596,0.522446036339,-10.0177459717,0.0,0.0,-2.08349370956,0.0774111673236,0.0931283831596,0.522446036339,-10.0177459717,-0.0793460011482,0.0632032006979,0.0362885072827,-0.0956229865551,0.192616045475,0.415556818247,1015.80999756,-21.2880096436,30.9899997711,0.0,0.0,0.0,0.0,-0.111142992973,0.0,0.0,0.0,0.0,0.0223604664207,0.0,0.0,0.0,10,1,0,20.0,1.52253806591,0.0,0.0,2.47155547142,-2.09553003311,,,,,,,,,,,,,,,,-0.00484370673075,-0.00350358732976,0.00440973509103,0.0774111673236,0,2,0,1.0,0,1,0.0,-0.0,0.0774111673236,0.0272277221084,0.99816006422,0.656641602516,-0.998161792755,0.0,7,0,32.0,33.0,33.0,33.0,0.0,0.0,0.0,0.0,,,,-0.0941239446402,0.00600156467408,0.0883667692542,10,2,-1.35096561909,-0.27214166522,4.51000022888,55,77,,,,,,,,,,,,,,,,,,,,,,,,,,,,,,0.0,0.0,3.89839744568,12.3954286575,12.5071048737,-1.0,-1.0,,,,,,,,,,,,,,,,,,,,,,,,,,,,,,,,,,,,,,,,,,,,,,,,,,,,,,,,,,,,,,,,,,,,,,,,,,,,,,,,,,,,,,,,,,,,,,,,,,,,,,,108570915,PX4FMU_V1,6770a48684aa339926e77855ea4d0b9491666ebc,test,305419904.0
0.018631445244,-0.00056016742019,-2.17227292061,0.0327752903104,-0.0186363961548,-0.0716189816594,0.70477938652,-0.517179131508,-9.44138908386,0.0,0.0,-2.08349370956,0.0774111673236,0.70477938652,-0.517179131508,-9.44138908386,0.071047693491,-0.0706254094839,-0.0744657516479,-0.124979175627,0.175971344113,0.430688619614,1015.80999756,-21.2880096436,30.9799995422,0.0,0.0,0.0,0.0,-0.108244888484,0.0,0.0,0.0,0.0,0.0242003239691,0.0,0.0,0.0,10,1,0,20.0,1.52265846729,0.0,0.0,2.47155547142,-2.09553003311,,,,,,,,,,,,,,,,-0.0163712259382,0.0027868617326,0.0240589380264,0.0774111673236,0,2,0,1.0,0,1,0.0,-0.0,0.0774111673236,0.0272277221084,0.99816006422,0.656641602516,-0.998161792755,0.0,7,0,34.0,44.0,36.0,42.0,0.0,0.0,0.0,0.0,,,,-0.0931572169065,0.00280100270174,0.0887739211321,8,-15,-1.0044182539,1.88469791412,4.51000022888,47,77,,,,,,,,,,,,,,,,,,,,,,,,,,,,,,0.0,0.0,3.89839744568,12.437333107,12.5069484711,-1.0,-1.0,,,,,,,,,,,,,,,,,,,,,,,,,,,,,,,,,,,,,,,,,,,,,,,,,,,,,,,,,,,,,,,,,,,,,,,,,,,,,,,,,,,,,,,,,,,,,,,,,,,,,,,108591921,PX4FMU_V1,6770a48684aa339926e77855ea4d0b9491666ebc,test,305419904.0
0.0191662795842,-0.00160950724967,-2.17283725739,0.00391741888598,-0.00766305066645,0.0264098197222,-0.837880849838,-0.0184080395848,-9.64307403564,0.0,0.0,-2.08349370956,0.0774111673236,-0.837880849838,-0.0184080395848,-9.64307403564,-0.022333689034,0.0403443127871,0.0355895832181,-0.0937882438302,0.13685631752,0.441369891167,1015.79998779,-21.2049369812,30.9799995422,0.0,0.0,0.0,0.0,-0.107547424734,0.0,0.0,0.0,0.0,0.0216418579221,0.0,0.0,0.0,10,1,0,20.0,1.52271854877,0.0,0.0,2.47155547142,-2.09553003311,,,,,,,,,,,,,,,,-0.0129673341289,0.00204243976623,0.00943773053586,0.0774111673236,0,2,0,1.0,0,1,0.0,-0.0,0.0774111673236,0.0272277221084,1.0,0.656641602516,-0.998161792755,0.0,7,0,37.0,42.0,38.0,39.0,0.0,0.0,0.0,0.0,,,,-0.0958313122392,0.00804802589118,0.0893280208111,0,12,0.0488951355219,-1.54568171501,4.51000022888,47,77,,,,,,,,,,,,,,,,,,,,,,,,,,,,,,0.0,0.0,3.89839744568,12.4624757767,12.5068511963,-1.0,-1.0,,,,,,,,,,,,,,,,,,,,,,,,,,,,,,,,,,,,,,,,,,,,,,,,,,,,,,,,,,,,,,,,,,,,,,,,,,,,,,,,,,,,,,,,,,,,,,,,,,,,,,,108613177,PX4FMU_V1,6770a48684aa339926e77855ea4d0b9491666ebc,test,305419904.0
0.0188026409596,-0.000793625949882,-2.1743144989,-0.0117774093524,-0.00590749178082,-0.0188604556024,0.34402525425,-0.237055554986,-9.71843528748,0.0,0.0,-2.08327102661,0.106598988175,0.34402525425,-0.237055554986,-9.71843528748,-0.00700401328504,-0.0490665249527,0.0155463255942,-0.131400838494,0.177635833621,0.442259997129,1015.82995605,-21.4541511536,30.9799995422,0.0,0.0,0.0,0.0,-0.107174493372,0.0,0.0,0.0,0.0,0.0226011872292,0.0,0.0,0.0,10,1,0,20.0,1.52283871174,0.0,0.0,2.47155547142,-2.09553003311,,,,,,,,,,,,,,,,-0.0106906509027,0.00128386099823,0.017767528072,0.106598988175,0,2,0,1.0,0,1,0.0,-0.0,0.106598988175,0.0272277221084,0.99816006422,0.656641602516,-0.998161792755,0.0,7,0,41.0,50.0,43.0,48.0,0.0,0.0,0.0,0.0,,,,-0.094013184309,0.00396836269647,0.099589727819,4,16,-0.58049094677,-2.0645096302,4.51000022888,0,77,,,,,,,,,,,,,,,,,,,,,,,,,,,,,,0.0,0.0,3.89839744568,12.4121904373,12.5067043304,-1.0,-1.0,,,,,,,,,,,,,,,,,,,,,,,,,,,,,,,,,,,,,,,,,,,,,,,,,,,,,,,,,,,,,,,,,,,,,,,,,,,,,,,,,,,,,,,,,,,,,,,,,,,,,,,108634872,PX4FMU_V1,6770a48684aa339926e77855ea4d0b9491666ebc,test,305419904.0
0.0189307630062,-0.00135068804957,-2.17355084419,0.0228447988629,0.00795503612608,0.0272411443293,0.134318709373,0.0325860194862,-9.6707906723,0.0,0.0,-2.08213043213,0.106598988175,0.134318709373,0.0325860194862,-9.6707906723,0.0304292272776,0.0350061766803,-0.0209158584476,-0.105714179575,0.183461472392,0.439589679241,1015.82000732,-21.3710803986,30.9799995422,0.0,0.0,0.0,0.0,-0.104139618576,0.0,0.0,0.0,0.0,0.021449174732,0.0,0.0,0.0,10,1,0,20.0,1.5229588747,0.0,0.0,2.47155547142,-2.09553003311,,,,,,,,,,,,,,,,-0.0152748096734,-0.000156155554578,0.0109080551192,0.106598988175,0,2,0,1.0,0,1,0.0,-0.0,0.106598988175,0.0272277221084,0.99816006422,0.656641602516,-0.998161792755,0.0,7,0,51.0,57.0,54.0,54.0,0.0,0.0,0.0,0.0,,,,-0.0946537405252,0.0067538395524,0.0999615117908,-4,9,0.611697733402,-1.1683191061,4.51000022888,0,77,,,,,,,,,,,,,,,,,,,,,,,,,,,,,,0.0,0.0,3.89839744568,12.4121904373,12.5066099167,-1.0,-1.0,,,,,,,,,,,,,,,,,,,,,,,,,,,,,,,,,,,,,,,,,,,,,,,,,,,,,,,,,,,,,,,,,,,,,,,,,,,,,,,,,,,,,,,,,,,,,,,,,,,,,,,108655629,PX4FMU_V1,6770a48684aa339926e77855ea4d0b9491666ebc,test,305419904.0
0.0191992297769,-0.0010879712645,-2.17660140991,-0.00118876656052,-0.024207688868,-0.0187254343182,-0.107977591455,-0.466811716557,-9.9853515625,0.0,0.0,-2.08098196983,0.121827408671,-0.107977591455,-0.466811716557,-9.9853515625,-0.0163835436106,-0.0566214174032,0.0233016461134,-0.129566058517,0.146843135357,0.430688619614,1015.82995605,-21.4541511536,30.9799995422,0.0,0.0,0.0,0.0,-0.100921273232,0.0,0.0,0.0,0.0,0.0258951131254,0.0,0.0,0.0,10,1,0,20.0,1.52307963371,0.0,0.0,2.47155547142,-2.09553003311,,,,,,,,,,,,,,,,-0.0123249515891,0.00385422538966,0.018433239311,0.121827408671,0,2,0,1.0,0,1,0.0,-0.0,0.121827408671,0.0272277221084,1.0,0.656641602516,-0.998161792755,0.0,7,0,55.0,69.0,58.0,65.0,0.0,0.0,0.0,0.0,,,,-0.0959960967302,0.00544019928202,0.104162827134,0,0,0.0,0.0,4.51000022888,0,77,,,,,,,,,,,,,,,,,,,,,,,,,,,,,,0.0,0.0,3.89839744568,12.3954286575,12.5064210892,-1.0,-1.0,,,,,,,,,,,,,,,,,,,,,,,,,,,,,,,,,,,,,,,,,,,,,,,,,,,,,,,,,,,,,,,,,,,,,,,,,,,,,,,,,,,,,,,,,,,,,,,,,,,,,,,108676828,PX4FMU_V1,6770a48684aa339926e77855ea4d0b9491666ebc,test,305419904.0
0.0191596746445,-0.00126494502183,-2.17888092995,0.0134999556467,0.0232149548829,-0.0477647334337,0.882311701775,-0.283528506756,-9.68830776215,0.0,0.0,-2.07960653305,0.130710661411,0.882311701775,-0.283528506756,-9.68830776215,0.0157348793,0.032109618187,-0.0851777940989,-0.132318213582,0.176803588867,0.428018301725,1015.79998779,-21.2049369812,30.9799995422,0.0,0.0,0.0,0.0,-0.0974384620786,0.0,0.0,0.0,0.0,0.0256014596671,0.0,0.0,0.0,10,1,0,20.0,1.52320027351,0.0,0.0,2.47155547142,-2.09553003311,,,,,,,,,,,,,,,,-0.0142087768763,-0.00219567865133,0.0233371518552,0.130710661411,0,2,0,1.0,0,1,0.0,-0.0,0.130710661411,0.0272277221084,0.99816006422,0.656641602516,-0.998161792755,0.0,7,0,58.0,72.0,62.0,68.0,0.0,0.0,0.0,0.0,,,,-0.0957983359694,0.00632511731237,0.107816278934,0,0,0.0,0.0,4.36800003052,0,77,,,,,,,,,,,,,,,,,,,,,,,,,,,,,,0.0,0.0,3.89839744568,12.4205713272,12.5062494278,-1.0,-1.0,,,,,,,,,,,,,,,,,,,,,,,,,,,,,,,,,,,,,,,,,,,,,,,,,,,,,,,,,,,,,,,,,,,,,,,,,,,,,,,,,,,,,,,,,,,,,,,,,,,,,,,108699321,PX4FMU_V1,6770a48684aa339926e77855ea4d0b9491666ebc,test,305419904.0
0.0191704314202,-0.00147381913848,-2.181609869,-0.00917087029666,-0.0246835723519,0.0365315042436,-1.14252007008,0.109698906541,-10.1352872849,0.0,0.0,-2.07846546173,0.130710661411,-1.14252007008,0.109698906541,-10.1352872849,-0.00484415423125,-0.0211010351777,0.0564014241099,-0.106631562114,0.137688547373,0.448490738869,1015.82000732,-21.3710803986,30.9799995422,0.0,0.0,0.0,0.0,-0.0969389975071,0.0,0.0,0.0,0.0,0.0271692518145,0.0,0.0,0.0,10,1,0,20.0,1.52325975895,0.0,0.0,2.47155547142,-2.09553003311,,,,,,,,,,,,,,,,-0.0112685570493,0.00416690530255,0.0112728755921,0.130710661411,0,2,0,1.0,0,1,0.0,-0.0,0.130710661411,0.0272277221084,0.99816006422,0.656641602516,-0.998161792755,0.0,7,0,62.0,72.0,64.0,68.0,0.0,0.0,0.0,0.0,,,,-0.0958520770073,0.00736954854801,0.111684009433,0,0,0.0,0.0,4.36800003052,0,77,,,,,,,,,,,,,,,,,,,,,,,,,,,,,,0.0,0.0,3.89839744568,12.437333107,12.5060949326,-1.0,-1.0,,,,,,,,,,,,,,,,,,,,,,,,,,,,,,,,,,,,,,,,,,,,,,,,,,,,,,,,,,,,,,,,,,,,,,,,,,,,,,,,,,,,,,,,,,,,,,,,,,,,,,,108720085,PX4FMU_V1,6770a48684aa339926e77855ea4d0b9491666ebc,test,305419904.0
0.0192187540233,-0.00112524616998,-2.18298745155,0.0065331873484,0.0203256160021,-0.0609104037285,1.09645473957,-0.493093550205,-9.59747695923,0.0,0.0,-2.07733368874,0.130710661411,1.09645473957,-0.493093550205,-9.59747695923,0.00463784020394,0.0207591895014,-0.0494675263762,-0.118557490408,0.130198433995,0.445820450783,1015.82995605,-21.4541511536,30.9699993134,0.0,0.0,0.0,0.0,-0.0944773033261,0.0,0.0,0.0,0.0,0.0258827619255,0.0,0.0,0.0,10,1,0,20.0,1.52337956429,0.0,0.0,2.47155547142,-2.09553003311,,,,,,,,,,,,,,,,-0.0133415013552,-0.00191087520216,0.0262660775334,0.130710661411,0,2,0,1.0,0,1,0.0,-0.0,0.130710661411,0.0272277221084,0.99816006422,0.656641602516,-0.998161792755,0.0,7,0,57.0,75.0,61.0,72.0,0.0,0.0,0.0,0.0,,,,-0.0960937440395,0.00562657508999,0.114196777344,0,0,0.0,0.0,4.36800003052,0,77,,,,,,,,,,,,,,,,,,,,,,,,,,,,,,0.0,0.0,3.89839744568,12.437333107,12.506026268,-1.0,-1.0,,,,,,,,,,,,,,,,,,,,,,,,,,,,,,,,,,,,,,,,,,,,,,,,,,,,,,,,,,,,,,,,,,,,,,,,,,,,,,,,,,,,,,,,,,,,,,,,,,,,,,,108741250,PX4FMU_V1,6770a48684aa339926e77855ea4d0b9491666ebc,test,305419904.0
0.0191619209945,-0.00151182664558,-2.18730068207,-4.83239236928e-05,-0.00139203527942,0.00389182195067,-0.306589663029,0.0325705595315,-9.72536659241,0.0,0.0,-2.07595252991,0.143401011825,-0.306589663029,0.0325705595315,-9.72536659241,0.0040966430679,0.0171378720552,-0.0600153580308,-0.121309638023,0.14517866075,0.446710556746,1015.79998779,-21.2049369812,30.9699993134,0.0,0.0,0.0,0.0,-0.0931382402778,0.0,0.0,0.0,0.0,0.0252801571041,0.0,0.0,0.0,10,1,0,20.0,1.52350127697,0.0,0.0,2.47155547142,-2.09553003311,,,,,,,,,,,,,,,,-0.0124489590526,0.00116371153854,0.0173993818462,0.143401011825,0,2,0,1.0,0,1,0.0,-0.0,0.143401011825,0.0272277221084,0.99816006422,0.656641602516,-0.998161792755,0.0,7,0,66.0,80.0,69.0,76.0,0.0,0.0,0.0,0.0,,,,-0.0958095490932,0.00755959236994,0.119887687266,0,0,0.0,0.0,4.36800003052,0,77,,,,,,,,,,,,,,,,,,,,,,,,,,,,,,0.0,0.0,3.89839744568,12.4457139969,12.505906105,-1.0,-1.0,,,,,,,,,,,,,,,,,,,,,,,,,,,,,,,,,,,,,,,,,,,,,,,,,,,,,,,,,,,,,,,,,,,,,,,,,,,,,,,,,,,,,,,,,,,,,,,,,,,,,,,108763940,PX4FMU_V1,6770a48684aa339926e77855ea4d0b9491666ebc,test,305419904.0
0.0191145259887,-0.00112647411879,-2.18765544891,-0.00661787576973,-0.00748965330422,0.0325611680746,0.0195482000709,-0.201439931989,-9.92846679688,0.0,0.0,-2.07481813431,0.143401011825,0.0195482000709,-0.201439931989,-9.92846679688,-0.00896858237684,-0.0372187197208,0.0923704132438,-0.0992925167084,0.141849726439,0.438699603081,1015.79998779,-21.2049369812,30.9699993134,0.0,0.0,0.0,0.0,-0.0928597226739,0.0,0.0,0.0,0.0,0.0256383121014,0.0,0.0,0.0,10,1,0,20.0,1.52362012863,0.0,0.0,2.47155547142,-2.09553003311,,,,,,,,,,,,,,,,-0.0115641122684,0.00170590763446,0.0133228860795,0.143401011825,0,2,0,1.0,0,1,0.0,-0.0,0.143401011825,0.0272277221084,0.99816006422,0.656641602516,-0.998161792755,0.0,7,0,65.0,80.0,69.0,76.0,0.0,0.0,0.0,0.0,,,,-0.0955725833774,0.00563271297142,0.121380403638,0,0,0.0,0.0,4.36800003052,0,77,,,,,,,,,,,,,,,,,,,,,,,,,,,,,,0.0,0.0,3.89839744568,12.4121904373,12.5057353973,-1.0,-1.0,,,,,,,,,,,,,,,,,,,,,,,,,,,,,,,,,,,,,,,,,,,,,,,,,,,,,,,,,,,,,,,,,,,,,,,,,,,,,,,,,,,,,,,,,,,,,,,,,,,,,,,108784701,PX4FMU_V1,6770a48684aa339926e77855ea4d0b9491666ebc,test,305419904.0
0.0192151367664,-0.00116979656741,-2.18442344666,0.00470975739881,0.0204988699406,-0.0424704812467,1.03277671337,-0.266114115715,-9.69337654114,0.0,0.0,-2.07294464111,0.142131984234,1.03277671337,-0.266114115715,-9.69337654114,-0.00487874448299,0.0316027216613,-0.0327240042388,-0.0901187136769,0.174306884408,0.450270950794,1015.82995605,-21.4541511536,30.9699993134,0.0,0.0,0.0,0.0,-0.0895867869258,0.0,0.0,0.0,0.0,0.0271302238107,0.0,0.0,0.0,10,1,0,20.0,1.52374112606,0.0,0.0,2.47155547142,-2.09553003311,,,,,,,,,,,,,,,,-0.0131021030247,-0.00190443871543,0.0248403791338,0.142131984234,0,2,0,1.0,0,1,0.0,-0.0,0.142131984234,0.0371287129819,0.99816006422,0.656641602516,-0.998161792755,0.0,7,0,63.0,81.0,67.0,77.0,0.0,0.0,0.0,0.0,,,,-0.0960756540298,0.00584934139624,0.123132035136,0,0,0.0,0.0,4.36800003052,0,77,,,,,,,,,,,,,,,,,,,,,,,,,,,,,,0.0,0.0,3.89839744568,12.4289522171,12.5055818558,-1.0,-1.0,,,,,,,,,,,,,,,,,,,,,,,,,,,,,,,,,,,,,,,,,,,,,,,,,,,,,,,,,,,,,,,,,,,,,,,,,,,,,,,,,,,,,,,,,,,,,,,,,,,,,,,108807524,PX4FMU_V1,6770a48684aa339926e77855ea4d0b9491666ebc,test,305419904.0
0.0191550180316,-0.00150845653843,-2.18429684639,0.00292544881813,-0.0193704050034,0.0277026966214,-0.970891773701,-0.00686385296285,-9.85167121887,0.0,0.0,-2.07136797905,0.142131984234,-0.970891773701,-0.00686385296285,-9.85167121887,0.016450881958,-0.00500144856051,-0.0298687554896,-0.124979175627,0.136024072766,0.447600632906,1015.82995605,-21.4541511536,30.9699993134,0.0,0.0,0.0,0.0,-0.0879376977682,0.0,0.0,0.0,0.0,0.0273699183017,0.0,0.0,0.0,10,1,0,20.0,1.52380156517,0.0,0.0,2.47155547142,-2.09553003311,,,,,,,,,,,,,,,,-0.0128310611472,0.00349870906211,0.0145314289257,0.142131984234,0,2,0,1.0,0,1,0.0,-0.0,0.142131984234,0.0371287129819,0.99816006422,0.656641602516,-0.998161792755,0.0,7,0,68.0,77.0,70.0,73.0,0.0,0.0,0.0,0.0,,,,-0.0957750231028,0.00754274241626,0.124578885734,0,0,0.0,0.0,4.36800003052,0,77,,,,,,,,,,,,,,,,,,,,,,,,,,,,,,0.0,0.0,3.89839744568,12.437333107,12.5054531097,-1.0,-1.0,,,,,,,,,,,,,,,,,,,,,,,,,,,,,,,,,,,,,,,,,,,,,,,,,,,,,,,,,,,,,,,,,,,,,,,,,,,,,,,,,,,,,,,,,,,,,,,,,,,,,,,108827966,PX4FMU_V1,6770a48684aa339926e77855ea4d0b9491666ebc,test,305419904.0
0.0192223340273,-0.000982284196652,-2.18428277969,-0.00891128089279,0.00849562976509,0.0329255983233,0.870458960533,-0.569440245628,-9.73387336731,0.0,0.0,-2.06983017921,0.142131984234,0.870458960533,-0.569440245628,-9.73387336731,-0.0253973398358,-0.0168939642608,0.0984515547752,-0.106631562114,0.157662183046,0.433358937502,1015.84997559,-21.6202907562,30.9599990845,0.0,0.0,0.0,0.0,-0.0843457579613,0.0,0.0,0.0,0.0,0.0291526578367,0.0,0.0,0.0,10,1,0,20.0,1.52392184734,0.0,0.0,2.47155547142,-2.09553003311,,,,,,,,,,,,,,,,-0.011336046271,-0.000465908029582,0.0139772659168,0.142131984234,0,2,0,1.0,0,1,0.0,-0.0,0.142131984234,0.0371287129819,0.99816006422,0.656641602516,-0.998161792755,0.0,7,0,66.0,78.0,70.0,74.0,0.0,0.0,0.0,0.0,,,,-0.0961116403341,0.00491172168404,0.126107364893,0,-16,0.0248495843261,2.14589810371,4.36800003052,51,77,,,,,,,,,,,,,,,,,,,,,,,,,,,,,,0.0,0.0,3.89839744568,12.4457139969,12.5053930283,-1.0,-1.0,,,,,,,,,,,,,,,,,,,,,,,,,,,,,,,,,,,,,,,,,,,,,,,,,,,,,,,,,,,,,,,,,,,,,,,,,,,,,,,,,,,,,,,,,,,,,,,,,,,,,,,108849209,PX4FMU_V1,6770a48684aa339926e77855ea4d0b9491666ebc,test,305419904.0
0.0191241633147,-0.00130125775468,-2.18686270714,0.0126283876598,0.0205205399543,-0.0233721323311,0.558556735516,-0.306551814079,-9.62560462952,0.0,0.0,-2.06794929504,0.143401011825,0.558556735516,-0.306551814079,-9.62560462952,0.0193622242659,0.0454125739634,-0.0383987352252,-0.136905103922,0.168481230736,0.446710556746,1015.82995605,-21.4541511536,30.9599990845,0.0,0.0,0.0,0.0,-0.0789661705494,0.0,0.0,0.0,0.0,0.0290736872703,0.0,0.0,0.0,10,1,0,20.0,1.52404141426,0.0,0.0,2.47155547142,-2.09553003311,,,,,,,,,,,,,,,,-0.0140723902732,-0.00182180141564,0.0230906195939,0.143401011825,0,2,0,1.0,0,1,0.0,-0.0,0.143401011825,0.0371287129819,0.99816006422,0.656641602516,-0.998161792755,0.0,7,0,64.0,80.0,68.0,76.0,0.0,0.0,0.0,0.0,,,,-0.0956207662821,0.00650668237358,0.130565330386,0,0,0.0,0.0,4.36800003052,0,77,,,,,,,,,,,,,,,,,,,,,,,,,,,,,,0.0,0.0,3.89839744568,12.437333107,12.5052576065,-1.0,-1.0,,,,,,,,,,,,,,,,,,,,,,,,,,,,,,,,,,,,,,,,,,,,,,,,,,,,,,,,,,,,,,,,,,,,,,,,,,,,,,,,,,,,,,,,,,,,,,,,,,,,,,,108871670,PX4FMU_V1,6770a48684aa339926e77855ea4d0b9491666ebc,test,305419904.0
0.0191075671464,-0.00139432947617,-2.18905949593,-0.0127002140507,-0.0333293825388,0.0321996808052,-1.27840423584,0.0535408258438,-10.0065116882,0.0,0.0,-2.06639313698,0.142131984234,-1.27840423584,0.0535408258438,-10.0065116882,-0.0161237604916,-0.0449633561075,0.00244782096706,-0.139657258987,0.175139114261,0.445820450783,1015.83996582,-21.5372200012,30.9499988556,0.0,0.0,0.0,0.0,-0.0755707100034,0.0,0.0,0.0,0.0,0.0309184789658,0.0,0.0,0.0,10,1,0,20.0,1.52416169643,0.0,0.0,2.47155547142,-2.09553003311,,,,,,,,,,,,,,,,-0.0107688829303,0.00523918913677,0.0153176579624,0.142131984234,0,2,0,1.0,0,1,0.0,-0.0,0.142131984234,0.0371287129819,1.0,0.656641602516,-0.998161792755,0.0,7,0,67.0,79.0,68.0,74.0,0.0,0.0,0.0,0.0,,,,-0.0955377817154,0.00697207404301,0.134317398071,0,-33,0.0154952453449,3.57266306877,4.36800003052,0,77,,,,,,,,,,,,,,,,,,,,,,,,,,,,,,0.0,0.0,3.89839744568,12.4289522171,12.5051136017,-1.0,-1.0,,,,,,,,,,,,,,,,,,,,,,,,,,,,,,,,,,,,,,,,,,,,,,,,,,,,,,,,,,,,,,,,,,,,,,,,,,,,,,,,,,,,,,,,,,,,,,,,,,,,,,,108892437,PX4FMU_V1,6770a48684aa339926e77855ea4d0b9491666ebc,test,305419904.0
0.019234791398,-0.000874886813108,-2.19139671326,0.00919457059354,0.0351720042527,-0.00288507877849,1.77937805653,-0.787862598896,-9.59208488464,0.0,0.0,-2.06482100487,0.142131984234,1.77937805653,-0.787862598896,-9.59208488464,-0.00246998178773,0.0260247588158,0.0442998223007,-0.142409384251,0.173474654555,0.424457877874,1015.82995605,-21.4541511536,30.9499988556,0.0,0.0,0.0,0.0,-0.0723686888814,0.0,0.0,0.0,0.0,0.0329591818154,0.0,0.0,0.0,10,1,0,20.0,1.52428233624,0.0,0.0,2.47155547142,-2.09553003311,,,,,,,,,,,,,,,,-0.0122434068471,-0.00132616749033,0.0167327821255,0.142131984234,0,2,0,1.0,0,1,0.0,-0.0,0.142131984234,0.0371287129819,1.0,0.656641602516,-0.998161792755,0.0,7,0,62.0,81.0,68.0,78.0,0.0,0.0,0.0,0.0,,,,-0.0961739122868,0.00437470572069,0.138231649995,0,0,0.0,0.0,4.632999897,0,77,,,,,,,,,,,,,,,,,,,,,,,,,,,,,,0.0,0.0,3.89839744568,12.437333107,12.5049781799,-1.0,-1.0,,,,,,,,,,,,,,,,,,,,,,,,,,,,,,,,,,,,,,,,,,,,,,,,,,,,,,,,,,,,,,,,,,,,,,,,,,,,,,,,,,,,,,,,,,,,,,,,,,,,,,,108913892,PX4FMU_V1,6770a48684aa339926e77855ea4d0b9491666ebc,test,305419904.0
0.0190105531365,-0.00152006978169,-2.1895570755,0.0181547813118,0.0106674982235,-0.0179195404053,-0.66495847702,0.0976667106152,-9.7730884552,0.0,0.0,-2.06298327446,0.151015222073,-0.66495847702,0.0976667106152,-9.7730884552,0.0488133653998,0.0611811578274,-0.0454087257385,-0.0928708612919,0.176803588867,0.437809497118,1015.80999756,-21.2880096436,30.9499988556,0.0,0.0,0.0,0.0,-0.0717829912901,0.0,0.0,0.0,0.0,0.0304685663432,0.0,0.0,0.0,10,1,0,20.0,1.52434194088,0.0,0.0,2.47155547142,-2.09553003311,,,,,,,,,,,,,,,,-0.0147169735283,-0.00039866977022,0.023304823786,0.151015222073,0,2,0,1.0,0,1,0.0,-0.0,0.151015222073,0.0346534661949,1.0,0.656641602516,-0.998161792755,0.0,7,0,65.0,80.0,67.0,76.0,0.0,0.0,0.0,0.0,,,,-0.095052704215,0.00760080758482,0.137445941567,0,0,0.0,0.0,4.632999897,0,77,,,,,,,,,,,,,,,,,,,,,,,,,,,,,,0.0,0.0,3.89839744568,12.437333107,12.5048341751,-1.0,-1.0,,,,,,,,,,,,,,,,,,,,,,,,,,,,,,,,,,,,,,,,,,,,,,,,,,,,,,,,,,,,,,,,,,,,,,,,,,,,,,,,,,,,,,,,,,,,,,,,,,,,,,,108936839,PX4FMU_V1,6770a48684aa339926e77855ea4d0b9491666ebc,test,305419904.0
0.0189827550203,-0.00132158212364,-2.19004869461,-0.0199279468507,-0.0416618064046,0.0169401913881,-1.5544500351,0.863508522511,-10.0622758865,0.0,0.0,-2.06120848656,0.159898474813,-0.361093908548,0.35177564621,-9.93648147583,-0.0402556844056,-0.0758759751916,0.0277590863407,-0.0901187136769,0.153501003981,0.442259997129,1015.86999512,-21.7864265442,30.9599990845,0.0,0.0,0.0,0.0,-0.0676366463304,0.0,0.0,0.0,0.0,0.0340295732021,0.0,0.0,0.0,10,1,0,20.0,1.52446210384,0.0,0.0,2.47155547142,-2.09553003311,,,,,,,,,,,,,,,,-0.00974815059453,0.00627511460334,0.0185327418149,0.159898474813,0,2,0,1.0,0,1,0.0,-0.0,0.159898474813,0.0371287129819,0.99816006422,0.656641602516,-0.998161792755,0.0,7,0,71.0,84.0,72.0,79.0,0.0,0.0,0.0,0.0,,,,-0.0949137285352,0.00660830922425,0.14049179852,0,0,0.0,0.0,4.632999897,0,77,,,,,,,,,,,,,,,,,,,,,,,,,,,,,,0.0,0.0,3.89839744568,12.4205713272,12.5046825409,-1.0,-1.0,,,,,,,,,,,,,,,,,,,,,,,,,,,,,,,,,,,,,,,,,,,,,,,,,,,,,,,,,,,,,,,,,,,,,,,,,,,,,,,,,,,,,,,,,,,,,,,,,,,,,,,108958280,PX4FMU_V1,6770a48684aa339926e77855ea4d0b9491666ebc,test,305419904.0
0.019581431523,-0.000736699148547,-2.19175076485,0.0203164648265,0.0358591191471,0.0106768086553,2.15617704391,-1.39365446568,-9.35644817352,0.0,0.0,-2.05966567993,0.17512691021,2.15617704391,-1.39365446568,-9.35644817352,-0.0124625982717,0.0151980761439,0.0368421189487,-0.133235603571,0.151836544275,0.443150103092,1015.86999512,-21.7864265442,30.9599990845,0.0,0.0,0.0,0.0,-0.0620289109647,0.0,0.0,0.0,0.0,0.0337752737105,0.0,0.0,0.0,10,1,0,20.0,1.52458238602,0.0,0.0,2.47155547142,-2.09553003311,,,,,,,,,,,,,,,,-0.0153690706939,-0.0041828006506,0.0199597887695,0.17512691021,0,2,0,1.0,0,1,0.0,-0.0,0.17512691021,0.0371287129819,1.0,0.656641602516,-0.998161792755,0.0,7,0,70.0,90.0,77.0,86.0,0.0,0.0,0.0,0.0,,,,-0.0979071557522,0.00368372863159,0.143742054701,19,3,-2.13312721252,-0.374695450068,4.632999897,43,77,,,,,,,,,,,,,,,,,,,,,,,,,,,,,,0.0,0.0,3.89839744568,12.4121904373,12.5045900345,-1.0,-1.0,,,,,,,,,,,,,,,,,,,,,,,,,,,,,,,,,,,,,,,,,,,,,,,,,,,,,,,,,,,,,,,,,,,,,,,,,,,,,,,,,,,,,,,,,,,,,,,,,,,,,,,108980260,PX4FMU_V1,6770a48684aa339926e77855ea4d0b9491666ebc,test,305419904.0
0.0189378634095,-0.00166056631133,-2.1917579174,-0.00124767213129,-0.0180925261229,0.00442439317703,-1.84818208218,0.625790536404,-10.2067966461,0.0,0.0,-2.05810117722,0.178934007883,-1.84818208218,0.625790536404,-10.2067966461,0.0432816632092,0.0317812040448,-0.0150769418105,-0.110301062465,0.150172069669,0.448490738869,1015.85998535,-21.7033576965,30.9499988556,0.0,0.0,0.0,0.0,-0.0551905818284,0.0,0.0,0.0,0.0,0.0352159030735,0.0,0.0,0.0,10,1,0,20.0,1.52470314503,0.0,0.0,2.47155547142,-2.09553003311,,,,,,,,,,,,,,,,-0.0121474023908,0.00343146058731,0.0211321488023,0.178934007883,0,2,0,1.0,0,1,0.0,-0.0,0.178934007883,0.0371287129819,0.99816006422,0.656641602516,-0.998161792755,0.0,7,0,81.0,101.0,85.0,96.0,0.0,0.0,0.0,0.0,,,,-0.0946892350912,0.00830332562327,0.145305380225,10,-4,-1.38194108009,0.629817962646,4.632999897,0,77,,,,,,,,,,,,,,,,,,,,,,,,,,,,,,0.0,0.0,3.89839744568,12.3786668777,12.5043716431,-1.0,-1.0,,,,,,,,,,,,,,,,,,,,,,,,,,,,,,,,,,,,,,,,,,,,,,,,,,,,,,,,,,,,,,,,,,,,,,,,,,,,,,,,,,,,,,,,,,,,,,,,,,,,,,,109001566,PX4FMU_V1,6770a48684aa339926e77855ea4d0b9491666ebc,test,305419904.0
0.0190928019583,-0.00106435432099,-2.19099879265,-0.0348309613764,-0.0377175919712,0.0150515846908,-0.593293309212,0.956676781178,-10.1190910339,0.0,0.0,-2.05622935295,0.180203050375,-0.593293309212,0.956676781178,-10.1190910339,-0.0512956567109,-0.0809290334582,0.0104068219662,-0.0919534787536,0.132695138454,0.442259997129,1015.80999756,-21.2880096436,30.9499988556,0.0,0.0,0.0,0.0,-0.0519152320921,0.0,0.0,0.0,0.0,0.0395026691258,0.0,0.0,0.0,10,1,0,20.0,1.52482354641,0.0,0.0,2.47155547142,-2.09553003311,,,,,,,,,,,,,,,,-0.00788229331374,0.0055951597169,0.0197057966143,0.180203050375,0,2,0,1.0,0,1,0.0,-0.0,0.180203050375,0.0371287129819,0.99816006422,0.656641602516,-0.998161792755,0.0,7,0,82.0,100.0,85.0,96.0,0.0,0.0,0.0,0.0,,,,-0.0954639911652,0.00532209780067,0.146423563361,0,0,0.0,0.0,4.632999897,0,77,,,,,,,,,,,,,,,,,,,,,,,,,,,,,,0.0,0.0,3.89839744568,12.4121904373,12.5041704178,-1.0,-1.0,,,,,,,,,,,,,,,,,,,,,,,,,,,,,,,,,,,,,,,,,,,,,,,,,,,,,,,,,,,,,,,,,,,,,,,,,,,,,,,,,,,,,,,,,,,,,,,,,,,,,,,109024062,PX4FMU_V1,6770a48684aa339926e77855ea4d0b9491666ebc,test,305419904.0
0.0195538066328,-0.00109791674186,-2.19050216675,0.0223727691919,0.0244271978736,0.0167040787637,1.51902318001,-1.53894174099,-9.55302429199,0.0,0.0,-2.0546836853,0.181472077966,1.51902318001,-1.53894174099,-9.55302429199,-0.00421180250123,0.0272536426783,0.0234737750143,-0.0983751341701,0.180132523179,0.431578755379,1015.80999756,-21.2880096436,30.9499988556,0.0,0.0,0.0,0.0,-0.0513915456831,0.0,0.0,0.0,0.0,0.0356048382819,0.0,0.0,0.0,10,1,0,20.0,1.52488350868,0.0,0.0,2.47155547142,-2.09553003311,,,,,,,,,,,,,,,,-0.0156184313819,-0.0024618441239,0.0194985643029,0.181472077966,0,2,0,1.0,0,1,0.0,-0.0,0.181472077966,0.0346534661949,1.0,0.656641602516,-0.998161792755,0.0,7,0,81.0,102.0,88.0,97.0,0.0,0.0,0.0,0.0,,,,-0.0977690145373,0.00548993470147,0.146694511175,0,0,0.0,0.0,4.632999897,0,77,,,,,,,,,,,,,,,,,,,,,,,,,,,,,,0.0,0.0,3.89839744568,12.4205713272,12.5040025711,-1.0,-1.0,,,,,,,,,,,,,,,,,,,,,,,,,,,,,,,,,,,,,,,,,,,,,,,,,,,,,,,,,,,,,,,,,,,,,,,,,,,,,,,,,,,,,,,,,,,,,,,,,,,,,,,109044777,PX4FMU_V1,6770a48684aa339926e77855ea4d0b9491666ebc,test,305419904.0
0.0188871473074,-0.0014720512554,-2.1925303936,0.0103868758306,-0.00344426115043,0.000859392108396,-1.03489565849,0.496978968382,-9.93570137024,0.0,0.0,-2.05323839188,0.182741120458,-1.03489565849,0.496978968382,-9.93570137024,0.0699972510338,0.0231962911785,0.00318691227585,-0.121309638023,0.157662183046,0.436919361353,1015.82995605,-21.4541511536,30.9399986267,0.0,0.0,0.0,0.0,-0.0480197034776,0.0,0.0,0.0,0.0,0.0377145037055,0.0,0.0,0.0,10,1,0,20.0,1.52500355244,0.0,0.0,2.47155547142,-2.09553003311,,,,,,,,,,,,,,,,-0.0136269303039,0.00140464375727,0.022395838052,0.182741120458,0,2,0,1.0,0,1,0.0,-0.0,0.182741120458,0.0346534661949,1.0,0.656641602516,-0.998161792755,0.0,7,0,83.0,103.0,85.0,98.0,0.0,0.0,0.0,0.0,,,,-0.0944356694818,0.00736069120467,0.150164976716,0,0,0.0,0.0,4.632999897,0,77,,,,,,,,,,,,,,,,,,,,,,,,,,,,,,0.0,0.0,3.89839744568,12.4205713272,12.5039196014,-1.0,-1.0,,,,,,,,,,,,,,,,,,,,,,,,,,,,,,,,,,,,,,,,,,,,,,,,,,,,,,,,,,,,,,,,,,,,,,,,,,,,,,,,,,,,,,,,,,,,,,,,,,,,,,,109066120,PX4FMU_V1,6770a48684aa339926e77855ea4d0b9491666ebc,test,305419904.0
0.0188449081033,-0.00142205401789,-2.19127750397,-0.0511974059045,-0.0288995467126,-7.14439977401e-07,-0.967146217823,1.81448924541,-9.92151165009,0.0,0.0,-2.05146670341,0.181472077966,-0.967146217823,1.81448924541,-9.92151165009,-0.0487614125013,-0.0285202413797,-0.00417813146487,-0.129566058517,0.159326657653,0.451161086559,1015.82995605,-21.4541511536,30.9399986267,0.0,0.0,0.0,0.0,-0.0449936725199,0.0,0.0,0.0,0.0,0.0416132099926,0.0,0.0,0.0,10,1,0,20.0,1.52512335777,0.0,0.0,2.47155547142,-2.09553003311,,,,,,,,,,,,,,,,-0.00559351872653,0.00468133063987,0.0227193776518,0.181472077966,0,2,0,1.0,0,1,0.0,-0.0,0.181472077966,0.0371287129819,0.99816006422,0.65914785862,-0.998161792755,0.0,7,0,84.0,103.0,85.0,99.0,0.0,0.0,0.0,0.0,,,,-0.0942244753242,0.00711068883538,0.151461794972,0,0,0.0,0.0,4.632999897,0,77,,,,,,,,,,,,,,,,,,,,,,,,,,,,,,0.0,0.0,3.89839744568,12.4205713272,12.5037536621,-1.0,-1.0,,,,,,,,,,,,,,,,,,,,,,,,,,,,,,,,,,,,,,,,,,,,,,,,,,,,,,,,,,,,,,,,,,,,,,,,,,,,,,,,,,,,,,,,,,,,,,,,,,,,,,,109087897,PX4FMU_V1,6770a48684aa339926e77855ea4d0b9491666ebc,test,305419904.0
0.0198004785925,-0.00113489862997,-2.19167423248,0.0351195335388,0.0131769552827,0.013424275443,1.37875783443,-2.22326111794,-9.28569507599,0.0,0.0,-2.04991745949,0.181472077966,1.37875783443,-2.22326111794,-9.28569507599,-0.0133356871083,-0.0129977427423,0.000726180616766,-0.113970600069,0.160991117358,0.430688619614,1015.88000488,-21.8694934845,30.9299983978,0.0,0.0,0.0,0.0,-0.0394389331341,0.0,0.0,0.0,0.0,0.04143736884,0.0,0.0,0.0,10,1,0,20.0,1.52524399757,0.0,0.0,2.47155547142,-2.09553003311,,,,,,,,,,,,,,,,-0.0174358449876,-0.000975270464551,0.0209978241473,0.181472077966,0,2,0,1.0,0,1,0.0,-0.0,0.181472077966,0.0371287129819,0.99816006422,0.65914785862,-0.998161792755,0.0,7,0,80.0,103.0,89.0,96.0,0.0,0.0,0.0,0.0,,,,-0.0990023612976,0.00567487441003,0.153409764171,0,0,0.0,0.0,4.632999897,0,77,,,,,,,,,,,,,,,,,,,,,,,,,,,,,,0.0,0.0,3.89839744568,12.4289522171,12.5035877228,-1.0,-1.0,,,,,,,,,,,,,,,,,,,,,,,,,,,,,,,,,,,,,,,,,,,,,,,,,,,,,,,,,,,,,,,,,,,,,,,,,,,,,,,,,,,,,,,,,,,,,,,,,,,,,,,109108348,PX4FMU_V1,6770a48684aa339926e77855ea4d0b9491666ebc,test,305419904.0
0.0189730897546,-0.00155588367488,-2.19403529167,0.0111867180094,0.00296659814194,0.0205657035112,-0.88029384613,0.265334635973,-10.2173786163,0.0,0.0,-2.04835176468,0.181472077966,-0.88029384613,0.265334635973,-10.2173786163,0.0728386342525,0.0327859297395,0.0441859476268,-0.146078914404,0.164320066571,0.431578755379,1015.82995605,-21.4541511536,30.9299983978,0.0,0.0,0.0,0.0,-0.0360993109643,0.0,0.0,0.0,0.0,0.044934913516,0.0,0.0,0.0,10,1,0,20.0,1.52530360222,0.0,0.0,2.47155547142,-2.09553003311,,,,,,,,,,,,,,,,-0.0137867713347,0.0006257268833,0.020515087992,0.181472077966,0,2,0,1.0,0,1,0.0,-0.0,0.181472077966,0.0371287129819,0.99816006422,0.656641602516,-0.998161792755,0.0,7,0,82.0,102.0,87.0,97.0,0.0,0.0,0.0,0.0,,,,-0.0948653742671,0.00777988182381,0.157332956791,23,-13,-1.32711565495,0.803001642227,4.632999897,43,77,,,,,,,,,,,,,,,,,,,,,,,,,,,,,,0.0,0.0,3.89839744568,12.4205713272,12.5034303665,-1.0,-1.0,,,,,,,,,,,,,,,,,,,,,,,,,,,,,,,,,,,,,,,,,,,,,,,,,,,,,,,,,,,,,,,,,,,,,,,,,,,,,,,,,,,,,,,,,,,,,,,,,,,,,,,109129566,PX4FMU_V1,6770a48684aa339926e77855ea4d0b9491666ebc,test,305419904.0
0.0188898146152,-0.00135719194077,-2.19251060486,-0.0346557125449,-0.00941523257643,0.00844762288034,-0.273184150457,1.85616600513,-9.74185943604,0.0,0.0,-2.04648566246,0.189086288214,-0.273184150457,1.85616600513,-9.74185943604,-0.0188394077122,-0.00395642407238,0.0247126594186,-0.104796789587,0.124372787774,0.439589679241,1015.82995605,-21.4541511536,30.9299983978,0.0,0.0,0.0,0.0,-0.0325713716447,0.0,0.0,0.0,0.0,0.0441364347935,0.0,0.0,0.0,10,1,0,20.0,1.52542495728,0.0,0.0,2.47155547142,-2.09553003311,,,,,,,,,,,,,,,,-0.00777312880382,0.00210620765574,0.0223843082786,0.189086288214,0,2,0,1.0,0,1,0.0,-0.0,0.189086288214,0.0371287129819,1.0,0.656641602516,-0.998161792755,0.0,7,0,82.0,103.0,84.0,99.0,0.0,0.0,0.0,0.0,,,,-0.0944490134716,0.00678636645898,0.157676339149,0,0,0.0,0.0,4.632999897,0,77,,,,,,,,,,,,,,,,,,,,,,,,,,,,,,0.0,0.0,3.89839744568,12.4205713272,12.5032644272,-1.0,-1.0,,,,,,,,,,,,,,,,,,,,,,,,,,,,,,,,,,,,,,,,,,,,,,,,,,,,,,,,,,,,,,,,,,,,,,,,,,,,,,,,,,,,,,,,,,,,,,,,,,,,,,,109152222,PX4FMU_V1,6770a48684aa339926e77855ea4d0b9491666ebc,test,305419904.0
0.0197417009622,-0.00134439673275,-2.19386434555,-0.00180557486601,-0.00419799191877,0.0150807406753,0.205112621188,-1.45898771286,-9.61803913116,0.0,0.0,-2.04503941536,0.209390863776,0.205112621188,-1.45898771286,-9.61803913116,-0.0665709227324,-0.0188753753901,-0.0213128365576,-0.113970600069,0.131862893701,0.437809497118,1015.86999512,-21.7864265442,30.9299983978,0.0,0.0,0.0,0.0,-0.026460558176,0.0,0.0,0.0,0.0,0.0442359298468,0.0,0.0,0.0,10,1,0,20.0,1.52554440498,0.0,0.0,2.47155547142,-2.09553003311,,,,,,,,,,,,,,,,-0.0125973718241,0.00141965376679,0.0212260615081,0.209390863776,0,2,0,1.0,0,1,0.0,-0.0,0.209390863776,0.0247524753213,0.99816006422,0.656641602516,-0.996323525906,0.0,7,0,95.0,118.0,100.0,112.0,0.0,0.0,0.0,0.0,,,,-0.0987084358931,0.00672242185101,0.156587809324,12,-19,-1.66916108131,2.65666294098,4.632999897,0,77,,,,,,,,,,,,,,,,,,,,,,,,,,,,,,0.0,0.0,3.89839744568,12.4038095474,12.5031652451,-1.0,-1.0,,,,,,,,,,,,,,,,,,,,,,,,,,,,,,,,,,,,,,,,,,,,,,,,,,,,,,,,,,,,,,,,,,,,,,,,,,,,,,,,,,,,,,,,,,,,,,,,,,,,,,,109172931,PX4FMU_V1,6770a48684aa339926e77855ea4d0b9491666ebc,test,305419904.0
0.0189609061927,-0.00140734342858,-2.19333696365,0.0329360105097,0.00112985121086,0.040015283972,-0.249122485518,-0.716950535774,-10.0653772354,0.0,0.0,-2.04398155212,0.219543144107,-0.249122485518,-0.716950535774,-10.0653772354,0.100561402738,0.00741636287421,0.0695438683033,-0.151583179832,0.16681677103,0.449380844831,1015.83996582,-21.5372200012,30.9299983978,0.0,0.0,0.0,0.0,-0.0214937217534,0.0,0.0,0.0,0.0,0.0461948290467,0.0,0.0,0.0,10,0,0,20.0,1.52566456795,0.0,0.0,2.47155547142,-2.09553003311,,,,,,,,,,,,,,,,-0.0166062619537,0.000767946767155,0.0176820978522,0.219543144107,0,2,0,1.0,0,0,0.0,-0.0,0.219543144107,0.0272277221084,0.99816006422,0.656641602516,-0.998161792755,0.0,7,0,96.0,118.0,100.0,112.0,0.0,0.0,0.0,0.0,,,,-0.0948044732213,0.00703713437542,0.157895922661,0,0,0.0,0.0,4.632999897,0,77,,,,,,,,,,,,,,,,,,,,,,,,,,,,,,0.0,0.0,3.89839744568,12.3451423645,12.502907753,-1.0,-1.0,,,,,,,,,,,,,,,,,,,,,,,,,,,,,,,,,,,,,,,,,,,,,,,,,,,,,,,,,,,,,,,,,,,,,,,,,,,,,,,,,,,,,,,,,,,,,,,,,,,,,,,109194261,PX4FMU_V1,6770a48684aa339926e77855ea4d0b9491666ebc,test,305419904.0
0.0188701041043,-0.00138265604619,-2.19150161743,-0.028183458373,-0.0031013074331,0.0124282706529,0.380228340626,1.62792825699,-9.70401954651,0.0,0.0,-2.04263067245,0.229695424438,0.380228340626,1.62792825699,-9.70401954651,-0.00373314833269,-0.00452247727662,0.033286973834,-0.111218452454,0.160991117358,0.454721480608,1015.80999756,-21.2880096436,30.9200000763,0.0,0.0,0.0,0.0,-0.0190789960325,0.0,0.0,0.0,0.0,0.0488074757159,0.0,0.0,0.0,10,0,0,20.0,1.52578485012,0.0,0.0,2.47155547142,-2.09553003311,,,,,,,,,,,,,,,,-0.00860170926899,0.00130194961093,0.0216309018433,0.229695424438,0,2,0,1.0,0,0,0.0,-0.0,0.229695424438,0.0247524753213,1.0,0.656641602516,-0.998161792755,0.0,7,0,100.0,124.0,102.0,120.0,0.0,0.0,0.0,0.0,,,,-0.0943504571915,0.00691368989646,0.156634271145,0,-7,0.0362309291959,1.05756437778,4.632999897,0,77,,,,,,,,,,,,,,,,,,,,,,,,,,,,,,0.0,0.0,3.89839744568,12.3786668777,12.5026760101,-1.0,-1.0,,,,,,,,,,,,,,,,,,,,,,,,,,,,,,,,,,,,,,,,,,,,,,,,,,,,,,,,,,,,,,,,,,,,,,,,,,,,,,,,,,,,,,,,,,,,,,,,,,,,,,,109216483,PX4FMU_V1,6770a48684aa339926e77855ea4d0b9491666ebc,test,305419904.0
0.0193896889687,-0.00153711973689,-2.19218564034,-0.0137573592365,0.00848408974707,0.0105130299926,0.119260385633,-0.0516403317451,-9.85973167419,0.0,0.0,-2.04158496857,0.232233509421,0.119260385633,-0.0516403317451,-9.85973167419,-0.0552722811699,0.0205356478691,-0.0230976175517,-0.120392255485,0.153501003981,0.458281934261,1015.80999756,-21.2880096436,30.9200000763,0.0,0.0,0.0,0.0,-0.0181157998741,0.0,0.0,0.0,0.0,0.0464834086597,0.0,0.0,0.0,10,0,0,20.0,1.52584505081,0.0,0.0,2.47155547142,-2.09553003311,,,,,,,,,,,,,,,,-0.0108148306608,-0.000103741207568,0.0221773404628,0.232233509421,0,2,0,1.0,0,0,0.0,-0.0,0.232233509421,0.0247524753213,1.0,0.656641602516,-0.998161792755,0.0,7,0,105.0,129.0,111.0,122.0,0.0,0.0,0.0,0.0,,,,-0.0969483628869,0.00768608041108,0.158361956477,0,-11,0.000520390167367,1.51789927483,4.632999897,47,77,,,,,,,,,,,,,,,,,,,,,,,,,,,,,,0.0,0.0,3.89839744568,12.3786668777,12.5024452209,-1.0,-1.0,,,,,,,,,,,,,,,,,,,,,,,,,,,,,,,,,,,,,,,,,,,,,,,,,,,,,,,,,,,,,,,,,,,,,,,,,,,,,,,,,,,,,,,,,,,,,,,,,,,,,,,109237601,PX4FMU_V1,6770a48684aa339926e77855ea4d0b9491666ebc,test,305419904.0
0.0194229148328,-0.00156470166985,-2.19294953346,0.0234166048467,-0.0184560008347,0.0190955009311,-1.16258883476,-1.80105102062,-10.08344841,0.0,0.0,-2.04055142403,0.234771579504,-1.16258883476,-1.80105102062,-10.08344841,0.0217978730798,-0.0195501130074,0.018354665488,-0.134152948856,0.161823362112,0.453831404448,1015.80999756,-21.2880096436,30.9200000763,0.0,0.0,0.0,0.0,-0.0170786920935,0.0,0.0,0.0,0.0,0.0489616282284,0.0,0.0,0.0,10,0,0,20.0,1.52596521378,0.0,0.0,2.47155547142,-2.09553003311,,,,,,,,,,,,,,,,-0.0156690441072,0.00341640040278,0.021159529686,0.234771579504,0,2,0,1.0,0,0,0.0,-0.0,0.234771579504,0.0247524753213,0.99816006422,0.656641602516,-0.998161792755,0.0,7,0,106.0,134.0,112.0,125.0,0.0,0.0,0.0,0.0,,,,-0.0971145033836,0.00782400462776,0.160159021616,-2,17,0.311241060495,-2.26463079453,4.632999897,55,77,,,,,,,,,,,,,,,,,,,,,,,,,,,,,,0.0,0.0,3.89839744568,12.3954286575,12.5022230148,-1.0,-1.0,,,,,,,,,,,,,,,,,,,,,,,,,,,,,,,,,,,,,,,,,,,,,,,,,,,,,,,,,,,,,,,,,,,,,,,,,,,,,,,,,,,,,,,,,,,,,,,,,,,,,,,109258703,PX4FMU_V1,6770a48684aa339926e77855ea4d0b9491666ebc,test,305419904.0
0.0188957136124,-0.00115180830471,-2.19282484055,0.0105800935999,-0.00334604410455,0.0188954286277,0.261079698801,-0.681118488312,-9.63768386841,0.0,0.0,-2.03926634789,0.242385789752,0.261079698801,-0.681118488312,-9.63768386841,0.0502059161663,-0.03260749951,0.0469766147435,-0.0901187136769,0.146010890603,0.447600632906,1015.82000732,-21.3710803986,30.9099998474,0.0,0.0,0.0,0.0,-0.0153832687065,0.0,0.0,0.0,0.0,0.0474973022938,0.0,0.0,0.0,10,0,0,20.0,1.52608656883,0.0,0.0,2.47155547142,-2.09553003311,,,,,,,,,,,,,,,,-0.0136576220393,0.00118370668497,0.0214809030294,0.242385789752,0,2,0,1.0,0,0,0.0,-0.0,0.242385789752,0.0272277221084,0.99816006422,0.656641602516,-0.998161792755,0.0,7,0,109.0,137.0,116.0,130.0,0.0,0.0,0.0,0.0,,,,-0.0944785401225,0.00575939193368,0.162101447582,0,0,0.0,0.0,4.632999897,0,77,,,,,,,,,,,,,,,,,,,,,,,,,,,,,,0.0,0.0,3.89839744568,12.3870477676,12.5021076202,-1.0,-1.0,,,,,,,,,,,,,,,,,,,,,,,,,,,,,,,,,,,,,,,,,,,,,,,,,,,,,,,,,,,,,,,,,,,,,,,,,,,,,,,,,,,,,,,,,,,,,,,,,,,,,,,109281112,PX4FMU_V1,6770a48684aa339926e77855ea4d0b9491666ebc,test,305419904.0
0.0189435482025,-0.00127946527209,-2.19132709503,-0.00476971641183,0.00357952923514,-0.00801757350564,1.34167587757,0.867429673672,-9.48025131226,0.0,0.0,-2.03812456131,0.242385789752,1.34167587757,0.867429673672,-9.48025131226,-0.00205314811319,0.00310817500576,-0.0260597262532,-0.11305321753,0.176803588867,0.440479785204,1015.82000732,-21.3710803986,30.9099998474,0.0,0.0,0.0,0.0,-0.0135629074648,0.0,0.0,0.0,0.0,0.0454042218626,0.0,0.0,0.0,10,0,0,20.0,1.52620613575,0.0,0.0,2.47155547142,-2.09553003311,,,,,,,,,,,,,,,,-0.0116932373494,0.000366362655768,0.0254642702639,0.242385789752,0,2,0,1.0,0,0,0.0,-0.0,0.242385789752,0.0272277221084,0.99816006422,0.656641602516,-0.998161792755,0.0,7,0,108.0,139.0,113.0,133.0,0.0,0.0,0.0,0.0,,,,-0.0947176963091,0.00639770366251,0.161744222045,0,0,0.0,0.0,4.41200017929,0,77,,,,,,,,,,,,,,,,,,,,,,,,,,,,,,0.0,0.0,3.89839744568,12.3786668777,12.5018863678,-1.0,-1.0,,,,,,,,,,,,,,,,,,,,,,,,,,,,,,,,,,,,,,,,,,,,,,,,,,,,,,,,,,,,,,,,,,,,,,,,,,,,,,,,,,,,,,,,,,,,,,,,,,,,,,,109302224,PX4FMU_V1,6770a48684aa339926e77855ea4d0b9491666ebc,test,305419904.0
0.0190243404359,-0.00121981487609,-2.19250178337,-0.0225006584078,0.0473590530455,-0.00190014252439,0.919682025909,0.699132680893,-9.57177734375,0.0,0.0,-2.03678274155,0.251269042492,0.919682025909,0.699132680893,-9.57177734375,-0.0388076491654,0.0701242238283,-0.0131862387061,-0.120392255485,0.16931347549,0.430688619614,1015.85998535,-21.7033576965,30.8899993896,0.0,0.0,0.0,0.0,-0.00973336026073,0.0,0.0,0.0,0.0,0.0474207177758,0.0,0.0,0.0,10,0,0,20.0,1.52632713318,0.0,0.0,2.47155547142,-2.09553003311,,,,,,,,,,,,,,,,-0.00944072939456,-0.00536374887452,0.0248075537384,0.251269042492,0,2,0,1.0,0,0,0.0,-0.0,0.251269042492,0.0247524753213,0.99816006422,0.656641602516,-0.998161792755,0.0,7,0,111.0,141.0,119.0,139.0,0.0,0.0,0.0,0.0,,,,-0.0951216518879,0.00609944202006,0.163483545184,0,0,0.0,0.0,4.41200017929,0,77,,,,,,,,,,,,,,,,,,,,,,,,,,,,,,0.0,0.0,3.89839744568,12.3954286575,12.5016565323,-1.0,-1.0,,,,,,,,,,,,,,,,,,,,,,,,,,,,,,,,,,,,,,,,,,,,,,,,,,,,,,,,,,,,,,,,,,,,,,,,,,,,,,,,,,,,,,,,,,,,,,,,,,,,,,,109324693,PX4FMU_V1,6770a48684aa339926e77855ea4d0b9491666ebc,test,305419904.0
0.0188906919211,-0.00139829574618,-2.19315695763,0.00799267739058,-0.0240405015647,-0.00415854621679,-1.35459768772,-0.186413526535,-9.96537494659,0.0,0.0,-2.03575706482,0.256345182657,-1.35459768772,-0.186413526535,-9.96537494659,0.02487475425,-0.0161915849894,0.00349554116838,-0.119474872947,0.155165478587,0.44493034482,1015.83996582,-21.5372200012,30.8899993896,0.0,0.0,0.0,0.0,-0.00632920116186,0.0,0.0,0.0,0.0,0.0491549111903,0.0,0.0,0.0,10,0,0,20.0,1.52638721466,0.0,0.0,2.47155547142,-2.09553003311,,,,,,,,,,,,,,,,-0.0133179882541,0.00403421092778,0.0253982078284,0.256345182657,0,2,0,1.0,0,0,0.0,-0.0,0.256345182657,0.0247524753213,1.0,0.656641602516,-0.998161792755,0.0,7,0,115.0,148.0,119.0,139.0,0.0,0.0,0.0,0.0,,,,-0.0944533869624,0.00699189258739,0.165162831545,0,0,0.0,0.0,4.41200017929,0,77,,,,,,,,,,,,,,,,,,,,,,,,,,,,,,0.0,0.0,3.89839744568,12.3702859879,12.5014019012,-1.0,-1.0,,,,,,,,,,,,,,,,,,,,,,,,,,,,,,,,,,,,,,,,,,,,,,,,,,,,,,,,,,,,,,,,,,,,,,,,,,,,,,,,,,,,,,,,,,,,,,,,,,,,,,,109345355,PX4FMU_V1,6770a48684aa339926e77855ea4d0b9491666ebc,test,305419904.0
0.0194346867502,-0.00126019294839,-2.19530367851,0.0298149678856,-0.0292193908244,-0.02274383232,-0.211174309254,-0.806108832359,-9.61641979218,0.0,0.0,-2.03471827507,0.262690365314,-0.211174309254,-0.806108832359,-9.61641979218,0.0113415298983,-0.0641719549894,-0.00473703863099,-0.110301062465,0.134359613061,0.435139149427,1015.82995605,-21.4541511536,30.8899993896,0.0,0.0,0.0,0.0,-0.00254259025678,0.0,0.0,0.0,0.0,0.0502232350409,0.0,0.0,0.0,10,0,0,20.0,1.52650761604,0.0,0.0,2.47155547142,-2.09553003311,,,,,,,,,,,,,,,,-0.0165084842592,0.00461769802496,0.0286639779806,0.262690365314,0,2,0,1.0,0,0,0.0,-0.0,0.262690365314,0.0247524753213,1.0,0.656641602516,-0.998161792755,0.0,7,0,116.0,153.0,122.0,143.0,0.0,0.0,0.0,0.0,,,,-0.0971733778715,0.00630136393011,0.168349340558,0,0,0.0,0.0,4.41200017929,0,77,,,,,,,,,,,,,,,,,,,,,,,,,,,,,,0.0,0.0,3.89839744568,12.3702859879,12.5012712479,-1.0,-1.0,,,,,,,,,,,,,,,,,,,,,,,,,,,,,,,,,,,,,,,,,,,,,,,,,,,,,,,,,,,,,,,,,,,,,,,,,,,,,,,,,,,,,,,,,,,,,,,,,,,,,,,109366651,PX4FMU_V1,6770a48684aa339926e77855ea4d0b9491666ebc,test,305419904.0
0.0190131086856,-0.00107937410939,-2.19561386108,-0.0272506717592,0.0183583982289,-0.0249251425266,1.42351746559,0.315907925367,-9.88063812256,0.0,0.0,-2.03347206116,0.26776650548,1.42351746559,0.315907925367,-9.88063812256,-0.0242552310228,-0.00736316107213,-0.0411413609982,-0.0983751341701,0.16931347549,0.442259997129,1015.82995605,-21.4541511536,30.8899993896,0.0,0.0,0.0,0.0,0.000212183818803,0.0,0.0,0.0,0.0,0.049793459475,0.0,0.0,0.0,10,0,0,20.0,1.52662801743,0.0,0.0,2.47155547142,-2.09553003311,,,,,,,,,,,,,,,,-0.00881592836231,-0.00168495683465,0.0292249377817,0.26776650548,0,2,0,1.0,0,0,0.0,-0.0,0.26776650548,0.0247524753213,1.0,0.656641602516,-0.998161792755,0.0,7,0,119.0,152.0,125.0,149.0,0.0,0.0,0.0,0.0,,,,-0.0950655043125,0.00539719127119,0.1699077636,0,0,0.0,0.0,4.41200017929,0,77,,,,,,,,,,,,,,,,,,,,,,,,,,,,,,0.0,0.0,3.89839744568,12.3535232544,12.5010004044,-1.0,-1.0,,,,,,,,,,,,,,,,,,,,,,,,,,,,,,,,,,,,,,,,,,,,,,,,,,,,,,,,,,,,,,,,,,,,,,,,,,,,,,,,,,,,,,,,,,,,,,,,,,,,,,,109389240,PX4FMU_V1,6770a48684aa339926e77855ea4d0b9491666ebc,test,305419904.0
0.0192713607103,-0.00126629020087,-2.19655275345,0.0306528061628,0.00160656310618,0.0193600356579,0.914870977402,-0.908445835114,-9.89447212219,0.0,0.0,-2.03238773346,0.272842645645,0.914870977402,-0.908445835114,-9.89447212219,0.0435738749802,0.013381389901,-0.00518671236932,-0.131400838494,0.177635833621,0.442259997129,1015.79998779,-21.2049369812,30.8899993896,0.0,0.0,0.0,0.0,0.000409240601584,0.0,0.0,0.0,0.0,0.0470283962786,0.0,0.0,0.0,10,0,0,20.0,1.52674770355,0.0,0.0,2.47155547142,-2.09553003311,,,,,,,,,,,,,,,,-0.0165112428367,0.000614286749624,0.0230019856244,0.272842645645,0,2,0,1.0,0,0,0.0,-0.0,0.272842645645,0.0272277221084,0.99816006422,0.656641602516,-0.998161792755,0.0,7,0,123.0,155.0,131.0,146.0,0.0,0.0,0.0,0.0,,,,-0.0963567644358,0.00633184611797,0.172706604004,10,-24,-1.18664598465,2.68952798843,4.41200017929,51,77,,,,,,,,,,,,,,,,,,,,,,,,,,,,,,0.0,0.0,3.89839744568,12.361905098,12.5007219315,-1.0,-1.0,,,,,,,,,,,,,,,,,,,,,,,,,,,,,,,,,,,,,,,,,,,,,,,,,,,,,,,,,,,,,,,,,,,,,,,,,,,,,,,,,,,,,,,,,,,,,,,,,,,,,,,109410842,PX4FMU_V1,6770a48684aa339926e77855ea4d0b9491666ebc,test,305419904.0
0.0191305335611,-0.00152260472532,-2.19508361816,-0.025874754414,0.0299729276448,0.0196173042059,0.0833324193954,-0.36563450098,-9.78589057922,0.0,0.0,-2.03101420403,0.27791878581,0.0833324193954,-0.36563450098,-9.78589057922,-0.0395728051662,0.0757002532482,0.0340804941952,-0.0992925167084,0.179300293326,0.445820450783,1015.78997803,-21.1218662262,30.8899993896,0.0,0.0,0.0,0.0,0.00294590555131,0.0,0.0,0.0,0.0,0.0475200787187,0.0,0.0,0.0,10,0,0,20.0,1.52686822414,0.0,0.0,2.47155547142,-2.09553003311,,,,,,,,,,,,,,,,-0.00907111912966,-0.00290672737174,0.022948699072,0.27791878581,0,2,0,1.0,0,0,0.0,-0.0,0.27791878581,0.0272277221084,0.99816006422,0.656641602516,-0.998161792755,0.0,7,0,123.0,157.0,127.0,148.0,0.0,0.0,0.0,0.0,,,,-0.0956525951624,0.00761348474771,0.172608628869,6,-17,-0.866670668125,2.27632880211,4.41200017929,0,77,,,,,,,,,,,,,,,,,,,,,,,,,,,,,,0.0,0.0,3.89839744568,12.361905098,12.5004615784,-1.0,-1.0,,,,,,,,,,,,,,,,,,,,,,,,,,,,,,,,,,,,,,,,,,,,,,,,,,,,,,,,,,,,,,,,,,,,,,,,,,,,,,,,,,,,,,,,,,,,,,,,,,,,,,,109432715,PX4FMU_V1,6770a48684aa339926e77855ea4d0b9491666ebc,test,305419904.0
0.0180333536118,-0.000858201296069,-2.19483232498,-0.0622629523277,0.0195738542825,0.00759423803538,-0.772604703903,0.957611560822,-10.0750999451,0.0,0.0,-2.02991843224,0.293147206306,-0.772604703903,0.957611560822,-10.0750999451,-0.0395118109882,0.00737229082733,0.0344507396221,-0.116722755134,0.170145705342,0.44493034482,1015.80999756,-21.2880096436,30.8899993896,0.0,0.0,0.0,0.0,0.00263046449982,0.0,0.0,0.0,0.0,0.0496910847723,0.0,0.0,0.0,10,0,0,20.0,1.52692842484,0.0,0.0,2.47155547142,-2.09553003311,,,,,,,,,,,,,,,,-0.00362749327905,-0.00198674015701,0.0247632022947,0.293147206306,0,2,0,1.0,0,0,0.0,-0.0,0.293147206306,0.0247524753213,1.0,0.656641602516,-0.998161792755,0.0,7,0,134.0,163.0,137.0,163.0,0.0,0.0,0.0,0.0,,,,-0.09016674757,0.00429123686627,0.172682255507,0,0,0.0,0.0,4.41200017929,0,77,,,,,,,,,,,,,,,,,,,,,,,,,,,,,,0.0,0.0,3.89839744568,12.3702859879,12.5001850128,-1.0,-1.0,,,,,,,,,,,,,,,,,,,,,,,,,,,,,,,,,,,,,,,,,,,,,,,,,,,,,,,,,,,,,,,,,,,,,,,,,,,,,,,,,,,,,,,,,,,,,,,,,,,,,,,109453212,PX4FMU_V1,6770a48684aa339926e77855ea4d0b9491666ebc,test,305419904.0
0.0181247834116,-0.000739116803743,-2.19499611855,0.0240905601531,-0.0275116860867,0.00350343529135,0.210035324097,0.0510070621967,-9.45472431183,0.0,0.0,-2.02888178825,0.293147206306,0.210035324097,0.0510070621967,-9.45472431183,0.0366694740951,-0.0521316602826,0.00526412250474,-0.110301062465,0.160991117358,0.453831404448,1015.84997559,-21.6202907562,30.8799991608,0.0,0.0,0.0,0.0,0.00327126262709,0.0,0.0,0.0,0.0,0.0473287254572,0.0,0.0,0.0,10,0,0,20.0,1.5270485878,0.0,0.0,2.47155547142,-2.09553003311,,,,,,,,,,,,,,,,-0.0149128790945,0.00405697105452,0.0255570430309,0.293147206306,0,2,0,1.0,0,0,0.0,-0.0,0.293147206306,0.0247524753213,1.0,0.656641602516,-0.998161792755,0.0,7,0,133.0,166.0,139.0,158.0,0.0,0.0,0.0,0.0,,,,-0.0906239002943,0.00369578367099,0.173883721232,0,0,0.0,0.0,4.41200017929,0,77,,,,,,,,,,,,,,,,,,,,,,,,,,,,,,0.0,0.0,3.89839744568,12.3116188049,12.4999961853,-1.0,-1.0,,,,,,,,,,,,,,,,,,,,,,,,,,,,,,,,,,,,,,,,,,,,,,,,,,,,,,,,,,,,,,,,,,,,,,,,,,,,,,,,,,,,,,,,,,,,,,,,,,,,,,,109474395,PX4FMU_V1,6770a48684aa339926e77855ea4d0b9491666ebc,test,305419904.0
0.0192211233079,-0.00150098756421,-2.19457101822,0.0317658260465,-0.0195637121797,-0.0207170657814,-0.00171074271202,-0.49640494585,-9.49911785126,0.0,0.0,-2.02763175964,0.300761431456,-0.00171074271202,-0.49640494585,-9.49911785126,-0.00539944507182,-0.0091453846544,-0.0352647081017,-0.124061793089,0.191783815622,0.450270950794,1015.79998779,-21.2049369812,30.8799991608,0.0,0.0,0.0,0.0,0.00690403115004,0.0,0.0,0.0,0.0,0.0473249591887,0.0,0.0,0.0,10,0,0,20.0,1.52716898918,0.0,0.0,2.47155547142,-2.09553003311,,,,,,,,,,,,,,,,-0.0166232772171,0.00351898511872,0.029312716797,0.300761431456,0,2,0,1.0,0,0,0.0,-0.0,0.300761431456,0.0247524753213,0.99816006422,0.656641602516,-0.998161792755,0.0,7,0,135.0,173.0,142.0,161.0,0.0,0.0,0.0,0.0,,,,-0.0961055457592,0.00750540569425,0.174701035023,-9,-14,1.20100545883,1.89554917812,4.41200017929,47,77,,,,,,,,,,,,,,,,,,,,,,,,,,,,,,0.0,0.0,3.89839744568,12.361905098,12.4996862411,-1.0,-1.0,,,,,,,,,,,,,,,,,,,,,,,,,,,,,,,,,,,,,,,,,,,,,,,,,,,,,,,,,,,,,,,,,,,,,,,,,,,,,,,,,,,,,,,,,,,,,,,,,,,,,,,109496811,PX4FMU_V1,6770a48684aa339926e77855ea4d0b9491666ebc,test,305419904.0
0.0190382711589,-0.0012879204005,-2.19329619408,-0.021067334339,0.0206581279635,0.010871976614,0.162989094853,-0.682636618614,-9.71191883087,0.0,0.0,-2.02658939362,0.303299486637,0.162989094853,-0.682636618614,-9.71191883087,-0.0408530980349,0.0174787323922,0.00615549925715,-0.0992925167084,0.172642409801,0.461842358112,1015.79998779,-21.2049369812,30.8799991608,0.0,0.0,0.0,0.0,0.00651481514797,0.0,0.0,0.0,0.0,0.0473478473723,0.0,0.0,0.0,10,0,0,20.0,1.52728915215,0.0,0.0,2.47155547142,-2.09553003311,,,,,,,,,,,,,,,,-0.00963611342013,-0.00184835772961,0.0245398022234,0.303299486637,0,2,0,1.0,0,0,0.0,-0.0,0.303299486637,0.0247524753213,1.0,0.656641602516,-0.998161792755,0.0,7,0,138.0,169.0,145.0,164.0,0.0,0.0,0.0,0.0,,,,-0.0951912850142,0.00643999129534,0.17447064817,0,0,0.0,0.0,4.41200017929,0,77,,,,,,,,,,,,,,,,,,,,,,,,,,,,,,0.0,0.0,3.89839744568,12.3283805847,12.4993610382,-1.0,-1.0,,,,,,,,,,,,,,,,,,,,,,,,,,,,,,,,,,,,,,,,,,,,,,,,,,,,,,,,,,,,,,,,,,,,,,,,,,,,,,,,,,,,,,,,,,,,,,,,,,,,,,,109517727,PX4FMU_V1,6770a48684aa339926e77855ea4d0b9491666ebc,test,305419904.0
0.0185097362846,-0.000996612012386,-2.19307947159,-0.000152021762915,0.000859735184349,0.0393479019403,0.747552990913,-0.0832954421639,-10.0706100464,0.0,0.0,-2.02551007271,0.304568529129,0.747552990913,-0.0832954421639,-10.0706100464,0.0390549339354,-0.0196686033159,0.0454333797097,-0.11305321753,0.171810179949,0.437809497118,1015.82995605,-21.4541511536,30.8699989319,0.0,0.0,0.0,0.0,0.00779754761606,0.0,0.0,0.0,0.0,0.0481650456786,0.0,0.0,0.0,10,0,0,20.0,1.52734863758,0.0,0.0,2.47155547142,-2.09553003311,,,,,,,,,,,,,,,,-0.0120115606114,0.000536068808287,0.0205149278045,0.304568529129,0,2,0,1.0,0,0,0.0,-0.0,0.304568529129,0.0272277221084,0.99816006422,0.656641602516,-0.998161792755,0.0,7,0,141.0,168.0,147.0,162.0,0.0,0.0,0.0,0.0,,,,-0.0925486460328,0.00498334132135,0.176114082336,0,0,0.0,0.0,4.41200017929,0,77,,,,,,,,,,,,,,,,,,,,,,,,,,,,,,0.0,0.0,3.89839744568,12.3535232544,12.4990692139,-1.0,-1.0,,,,,,,,,,,,,,,,,,,,,,,,,,,,,,,,,,,,,,,,,,,,,,,,,,,,,,,,,,,,,,,,,,,,,,,,,,,,,,,,,,,,,,,,,,,,,,,,,,,,,,,109538906,PX4FMU_V1,6770a48684aa339926e77855ea4d0b9491666ebc,test,305419904.0
0.0192725583911,-0.0014578338014,-2.19364190102,0.0310037862509,-0.0116520635784,0.0106321303174,0.161077290773,-0.75276017189,-10.0046167374,0.0,0.0,-2.02418637276,0.313451766968,0.161077290773,-0.75276017189,-10.0046167374,0.0199979189783,0.00441284617409,-0.00400069076568,-0.115805365145,0.1584944278,0.443150103092,1015.82000732,-21.3710803986,30.8699989319,0.0,0.0,0.0,0.0,0.0100487237796,0.0,0.0,0.0,0.0,0.0477928109467,0.0,0.0,0.0,10,0,0,20.0,1.52746915817,0.0,0.0,2.47155547142,-2.09553003311,,,,,,,,,,,,,,,,-0.016557648778,0.00246241781861,0.0249878335744,0.313451766968,0,2,0,1.0,0,0,0.0,-0.0,0.313451766968,0.0247524753213,1.0,0.656641602516,-0.998161792755,0.0,7,0,140.0,172.0,146.0,161.0,0.0,0.0,0.0,0.0,,,,-0.0963627398014,0.00728961266577,0.177217677236,0,0,0.0,0.0,4.41200017929,0,77,,,,,,,,,,,,,,,,,,,,,,,,,,,,,,0.0,0.0,3.89839744568,12.361905098,12.4987945557,-1.0,-1.0,,,,,,,,,,,,,,,,,,,,,,,,,,,,,,,,,,,,,,,,,,,,,,,,,,,,,,,,,,,,,,,,,,,,,,,,,,,,,,,,,,,,,,,,,,,,,,,,,,,,,,,109560868,PX4FMU_V1,6770a48684aa339926e77855ea4d0b9491666ebc,test,305419904.0
0.0187666863203,-0.00128801411483,-2.19416570663,-0.0509067475796,0.0175743345171,-0.0364010035992,-0.183350756764,0.151589974761,-9.87005710602,0.0,0.0,-2.02313709259,0.326142132282,-0.183350756764,0.151589974761,-9.87005710602,-0.0594297982752,0.0245521627367,-0.0539935827255,-0.114887982607,0.146010890603,0.450270950794,1015.83996582,-21.5372200012,30.859998703,0.0,0.0,0.0,0.0,0.0119633376598,0.0,0.0,0.0,0.0,0.0479977168143,0.0,0.0,0.0,10,0,0,20.0,1.52758955956,0.0,0.0,2.47155547142,-2.09553003311,,,,,,,,,,,,,,,,-0.00558046391234,-0.00144740520045,0.0322790779173,0.326142132282,0,2,0,1.0,0,0,0.0,-0.0,0.326142132282,0.0247524753213,0.99816006422,0.656641602516,-0.996323525906,0.0,7,0,149.0,183.0,152.0,180.0,0.0,0.0,0.0,0.0,,,,-0.0938333943486,0.0064404476434,0.178792834282,-8,-28,0.985336363316,3.10108971596,4.41200017929,59,77,,,,,,,,,,,,,,,,,,,,,,,,,,,,,,0.0,0.0,3.89839744568,12.3283805847,12.498623848,-1.0,-1.0,,,,,,,,,,,,,,,,,,,,,,,,,,,,,,,,,,,,,,,,,,,,,,,,,,,,,,,,,,,,,,,,,,,,,,,,,,,,,,,,,,,,,,,,,,,,,,,,,,,,,,,109582444,PX4FMU_V1,6770a48684aa339926e77855ea4d0b9491666ebc,test,305419904.0
0.0179300699383,-0.000931848539039,-2.19680118561,-0.0172287952155,0.00719873607159,-0.00281801843084,-0.195994317532,0.173043817282,-9.66319084167,0.0,0.0,-2.02188825607,0.336294412613,-0.195994317532,0.173043817282,-9.66319084167,0.0056518651545,-0.00156417710241,0.00116507103667,-0.102044671774,0.153501003981,0.461842358112,1015.79998779,-21.2049369812,30.859998703,0.0,0.0,0.0,0.0,0.0144703704864,0.0,0.0,0.0,0.0,0.0486774630845,0.0,0.0,0.0,10,0,0,20.0,1.5277094841,0.0,0.0,2.47155547142,-2.09553003311,,,,,,,,,,,,,,,,-0.00941479764879,-0.000330102018779,0.0278248377144,0.336294412613,0,2,0,1.0,0,0,0.0,-0.0,0.336294412613,0.0247524753213,1.0,0.656641602516,-0.998161792755,0.0,7,0,154.0,187.0,159.0,184.0,0.0,0.0,0.0,0.0,,,,-0.0896503180265,0.00465948972851,0.182680889964,-3,-5,0.466905981302,0.779189586639,4.41200017929,0,77,,,,,,,,,,,,,,,,,,,,,,,,,,,,,,0.0,0.0,3.89839744568,12.303237915,12.4982662201,-1.0,-1.0,,,,,,,,,,,,,,,,,,,,,,,,,,,,,,,,,,,,,,,,,,,,,,,,,,,,,,,,,,,,,,,,,,,,,,,,,,,,,,,,,,,,,,,,,,,,,,,,,,,,,,,109605416,PX4FMU_V1,6770a48684aa339926e77855ea4d0b9491666ebc,test,305419904.0
0.018341453746,-0.00108031614218,-2.19616794586,0.043246589601,-0.0258403271437,0.059749186039,-0.210844367743,-0.210152506828,-9.57767009735,0.0,0.0,-2.020819664,0.337563455105,-0.210844367743,-0.210152506828,-9.57767009735,0.0517327822745,-0.0492118522525,0.0700129121542,-0.129566058517,0.191783815622,0.448490738869,1015.79998779,-21.2049369812,30.859998703,0.0,0.0,0.0,0.0,0.0139969130978,0.0,0.0,0.0,0.0,0.0483514368534,0.0,0.0,0.0,10,0,0,20.0,1.52782964706,0.0,0.0,2.47155547142,-2.09553003311,,,,,,,,,,,,,,,,-0.0175439976156,0.00406148703769,0.0186214782298,0.337563455105,0,2,0,1.0,0,0,0.0,-0.0,0.337563455105,0.0272277221084,0.99816006422,0.656641602516,-0.998161792755,0.0,7,0,158.0,187.0,165.0,177.0,0.0,0.0,0.0,0.0,,,,-0.0917072296143,0.00540188141167,0.18389236927,0,8,0.0404298007488,-0.926372826099,4.41200017929,0,77,,,,,,,,,,,,,,,,,,,,,,,,,,,,,,0.0,0.0,3.89839744568,12.3199996948,12.4979009628,-1.0,-1.0,,,,,,,,,,,,,,,,,,,,,,,,,,,,,,,,,,,,,,,,,,,,,,,,,,,,,,,,,,,,,,,,,,,,,,,,,,,,,,,,,,,,,,,,,,,,,,,,,,,,,,,109626818,PX4FMU_V1,6770a48684aa339926e77855ea4d0b9491666ebc,test,305419904.0
0.0194841641933,-0.00169650127646,-2.19589757919,0.0167336128652,-0.0181807857007,0.0261665228754,-0.36767166853,-0.698434650898,-9.38355827332,0.0,0.0,-2.01950526237,0.341370552778,-0.36767166853,-0.698434650898,-9.38355827332,-0.0276576131582,-0.00302731897682,0.0038008922711,-0.125896558166,0.171810179949,0.436919361353,1015.83996582,-21.5372200012,30.8499984741,0.0,0.0,0.0,0.0,0.0173361599445,0.0,0.0,0.0,0.0,0.0484271161258,0.0,0.0,0.0,10,0,0,20.0,1.52795100212,0.0,0.0,2.47155547142,-2.09553003311,,,,,,,,,,,,,,,,-0.0148400655016,0.0034662981052,0.0236978139728,0.341370552778,0,2,0,1.0,0,0,0.0,-0.0,0.341370552778,0.0247524753213,0.99816006422,0.656641602516,-0.998161792755,0.0,7,0,159.0,190.0,166.0,179.0,0.0,0.0,0.0,0.0,,,,-0.0974207371473,0.00848304573447,0.184151947498,1,15,-0.217953011394,-2.06227421761,4.41200017929,0,77,,,,,,,,,,,,,,,,,,,,,,,,,,,,,,0.0,0.0,3.89839744568,12.3283805847,12.4975614548,-1.0,-1.0,,,,,,,,,,,,,,,,,,,,,,,,,,,,,,,,,,,,,,,,,,,,,,,,,,,,,,,,,,,,,,,,,,,,,,,,,,,,,,,,,,,,,,,,,,,,,,,,,,,,,,,109649422,PX4FMU_V1,6770a48684aa339926e77855ea4d0b9491666ebc,test,305419904.0
0.0187739152461,-0.00158507784363,-2.19605493546,-0.0415205582976,0.0165740959346,-0.0206642467529,0.15960855782,-0.0146699016914,-10.0078926086,0.0,0.0,-2.0184648037,0.341370552778,0.15960855782,-0.0146699016914,-10.0078926086,-0.0317693054676,0.0207039546221,0.0184447579086,-0.121309638023,0.162655591965,0.461842358112,1015.80999756,-21.2880096436,30.8499984741,0.0,0.0,0.0,0.0,0.0185854565352,0.0,0.0,0.0,0.0,0.0489729493856,0.0,0.0,0.0,10,0,0,20.0,1.5280110836,0.0,0.0,2.47155547142,-2.09553003311,,,,,,,,,,,,,,,,-0.00680536217988,-0.00112427223939,0.0309023428708,0.341370552778,0,2,0,1.0,0,0,0.0,-0.0,0.341370552778,0.0247524753213,0.99816006422,0.656641602516,-0.998161792755,0.0,7,0,155.0,192.0,158.0,189.0,0.0,0.0,0.0,0.0,,,,-0.0938694998622,0.00792584754527,0.185351371765,0,0,0.0,0.0,4.41200017929,0,77,,,,,,,,,,,,,,,,,,,,,,,,,,,,,,0.0,0.0,3.89839744568,12.3283805847,12.497215271,-1.0,-1.0,,,,,,,,,,,,,,,,,,,,,,,,,,,,,,,,,,,,,,,,,,,,,,,,,,,,,,,,,,,,,,,,,,,,,,,,,,,,,,,,,,,,,,,,,,,,,,,,,,,,,,,109670114,PX4FMU_V1,6770a48684aa339926e77855ea4d0b9491666ebc,test,305419904.0
0.0184466950595,-0.000955331488512,-2.19836449623,-0.00164031167515,0.036783143878,-0.0086832717061,0.980328202248,0.149577781558,-9.20838260651,0.0,0.0,-2.01743030548,0.343908637762,0.980328202248,0.149577781558,-9.20838260651,0.00688835047185,0.0290500316769,0.0516263023019,-0.155252724886,0.167649000883,0.454721480608,1015.90997314,-22.1186904907,30.8400001526,0.0,0.0,0.0,0.0,0.0206841118634,0.0,0.0,0.0,0.0,0.0467921197414,0.0,0.0,0.0,10,0,0,20.0,1.52813136578,0.0,0.0,2.47155547142,-2.09553003311,,,,,,,,,,,,,,,,-0.0117771094665,-0.004160807468,0.0296077448875,0.343908637762,0,2,0,1.0,0,0,0.0,-0.0,0.343908637762,0.0247524753213,1.0,0.656641602516,-0.998161792755,0.0,7,0,156.0,192.0,164.0,188.0,0.0,0.0,0.0,0.0,,,,-0.0922334641218,0.00477693229914,0.188701689243,6,15,-0.832276582718,-2.07454061508,4.41200017929,0,77,,,,,,,,,,,,,,,,,,,,,,,,,,,,,,0.0,0.0,3.89839744568,12.3283805847,12.4970464706,-1.0,-1.0,,,,,,,,,,,,,,,,,,,,,,,,,,,,,,,,,,,,,,,,,,,,,,,,,,,,,,,,,,,,,,,,,,,,,,,,,,,,,,,,,,,,,,,,,,,,,,,,,,,,,,,109691181,PX4FMU_V1,6770a48684aa339926e77855ea4d0b9491666ebc,test,305419904.0
0.018905075267,-0.00134969258215,-2.19901657104,0.0344201251864,-0.0255137570202,0.0545592084527,0.943991363049,-0.320573061705,-9.44516277313,0.0,0.0,-2.01617503166,0.346446692944,0.943991363049,-0.320573061705,-9.44516277313,0.0334560349584,-0.0265258029103,0.0829692855477,-0.122227028012,0.165984541178,0.442259997129,1015.83996582,-21.5372200012,30.8400001526,0.0,0.0,0.0,0.0,0.029777828604,0.0,0.0,0.0,0.0,0.0502225123346,0.0,0.0,0.0,10,0,0,20.0,1.5282510519,0.0,0.0,2.47155547142,-2.09553003311,,,,,,,,,,,,,,,,-0.0167629085481,0.0041941399686,0.0204068683088,0.346446692944,0,2,0,1.0,0,0,0.0,-0.0,0.346446692944,0.0247524753213,1.0,0.656641602516,-0.998161792755,0.0,7,0,163.0,192.0,169.0,181.0,0.0,0.0,0.0,0.0,,,,-0.0945253297687,0.00674886070192,0.190604999661,0,0,0.0,0.0,4.41200017929,0,77,,,,,,,,,,,,,,,,,,,,,,,,,,,,,,0.0,0.0,3.89839744568,12.3283805847,12.4967088699,-1.0,-1.0,,,,,,,,,,,,,,,,,,,,,,,,,,,,,,,,,,,,,,,,,,,,,,,,,,,,,,,,,,,,,,,,,,,,,,,,,,,,,,,,,,,,,,,,,,,,,,,,,,,,,,,109713525,PX4FMU_V1,6770a48684aa339926e77855ea4d0b9491666ebc,test,305419904.0
0.0190006177872,-0.00195504561998,-2.19937491417,0.00284045934677,0.00632908614352,0.0075984466821,0.100475206971,-0.450046300888,-9.8659954071,0.0,0.0,-2.0151488781,0.351522833109,0.100475206971,-0.450046300888,-9.8659954071,0.00133382924832,0.0561482645571,-0.0099890595302,-0.134152948856,0.161823362112,0.442259997129,1015.83996582,-21.5372200012,30.8400001526,0.0,0.0,0.0,0.0,0.0332051217556,0.0,0.0,0.0,0.0,0.0512843057513,0.0,0.0,0.0,10,0,0,20.0,1.52837109566,0.0,0.0,2.47155547142,-2.09553003311,,,,,,,,,,,,,,,,-0.0127196442336,0.000448074308224,0.0276577956975,0.351522833109,0,2,0,1.0,0,0,0.0,-0.0,0.351522833109,0.0247524753213,0.99816006422,0.656641602516,-0.998161792755,0.0,7,0,163.0,196.0,168.0,188.0,0.0,0.0,0.0,0.0,,,,-0.095002964139,0.00977581180632,0.191983744502,-3,4,0.476354748011,-0.549116909504,4.41200017929,0,77,,,,,,,,,,,,,,,,,,,,,,,,,,,,,,0.0,0.0,3.89839744568,12.3283805847,12.4963722229,-1.0,-1.0,,,,,,,,,,,,,,,,,,,,,,,,,,,,,,,,,,,,,,,,,,,,,,,,,,,,,,,,,,,,,,,,,,,,,,,,,,,,,,,,,,,,,,,,,,,,,,,,,,,,,,,109734662,PX4FMU_V1,6770a48684aa339926e77855ea4d0b9491666ebc,test,305419904.0
0.018782896921,-0.00166315236129,-2.19952607155,-0.00518873054534,0.01714322716,0.0191073771566,0.167715370655,0.245621204376,-9.97195625305,0.0,0.0,-2.0141108036,0.350253820419,0.167715370655,0.245621204376,-9.97195625305,0.020572271198,0.0245382897556,-0.00910920090973,-0.131400838494,0.157662183046,0.450270950794,1015.88000488,-21.8694934845,30.8299999237,0.0,0.0,0.0,0.0,0.0379122272134,0.0,0.0,0.0,0.0,0.0548105239868,0.0,0.0,0.0,10,0,0,20.0,1.52843117714,0.0,0.0,2.47155547142,-2.09553003311,,,,,,,,,,,,,,,,-0.0115343341604,-0.00114750734065,0.0261102560908,0.350253820419,0,2,0,1.0,0,0,0.0,-0.0,0.350253820419,0.0247524753213,1.0,0.656641602516,-0.998161792755,0.0,7,0,162.0,194.0,168.0,189.0,0.0,0.0,0.0,0.0,,,,-0.0939143821597,0.008316247724,0.193175733089,0,0,0.0,0.0,4.41200017929,0,77,,,,,,,,,,,,,,,,,,,,,,,,,,,,,,0.0,0.0,3.89839744568,12.3283805847,12.4960279465,-1.0,-1.0,,,,,,,,,,,,,,,,,,,,,,,,,,,,,,,,,,,,,,,,,,,,,,,,,,,,,,,,,,,,,,,,,,,,,,,,,,,,,,,,,,,,,,,,,,,,,,,,,,,,,,,109755828,PX4FMU_V1,6770a48684aa339926e77855ea4d0b9491666ebc,test,305419904.0
0.0190207604319,-0.00199830648489,-2.19846343994,0.0312315523624,-0.0203246250749,0.0649334266782,-0.906014800072,-0.457447081804,-10.0979642868,0.0,0.0,-2.01285147667,0.364213198423,-0.906014800072,-0.457447081804,-10.0979642868,0.0523550920188,0.00978490151465,0.0315908417106,-0.124979175627,0.189287111163,0.451161086559,1015.84997559,-21.6202907562,30.8299999237,0.0,0.0,0.0,0.0,0.0443036444485,0.0,0.0,0.0,0.0,0.0566590614617,0.0,0.0,0.0,10,0,0,20.0,1.52855193615,0.0,0.0,2.47155547142,-2.09553003311,,,,,,,,,,,,,,,,-0.0164235793054,0.00394117832184,0.0192653462291,0.364213198423,0,2,0,1.0,0,0,0.0,-0.0,0.364213198423,0.0247524753213,0.99816006422,0.656641602516,-0.998161792755,0.0,7,0,174.0,199.0,179.0,189.0,0.0,0.0,0.0,0.0,,,,-0.0951036736369,0.00999213196337,0.193369075656,-6,14,0.696796178818,-1.64179611206,4.41200017929,0,77,,,,,,,,,,,,,,,,,,,,,,,,,,,,,,0.0,0.0,3.89839744568,12.3283805847,12.4956922531,-1.0,-1.0,,,,,,,,,,,,,,,,,,,,,,,,,,,,,,,,,,,,,,,,,,,,,,,,,,,,,,,,,,,,,,,,,,,,,,,,,,,,,,,,,,,,,,,,,,,,,,,,,,,,,,,109778081,PX4FMU_V1,6770a48684aa339926e77855ea4d0b9491666ebc,test,305419904.0
0.0191772356629,-0.00189896952361,-2.19855761528,-0.00997597444803,0.00954633485526,0.0317689068615,-0.767550945282,0.519414782524,-10.1286745071,0.0,0.0,-2.01182079315,0.374365478754,-0.767550945282,0.519414782524,-10.1286745071,-0.010665062815,0.015795186162,-0.00641688797623,-0.138739868999,0.18845488131,0.456501692533,1015.88995361,-21.9525604248,30.8199996948,0.0,0.0,0.0,0.0,0.0493516027927,0.0,0.0,0.0,0.0,0.0579806417227,0.0,0.0,0.0,10,0,0,20.0,1.52867233753,0.0,0.0,2.47155547142,-2.09553003311,,,,,,,,,,,,,,,,-0.01116831135,-6.61754938847e-06,0.0244088936597,0.374365478754,0,2,0,1.0,0,0,0.0,-0.0,0.374365478754,0.0247524753213,1.0,0.656641602516,-0.998161792755,0.0,7,0,175.0,206.0,181.0,200.0,0.0,0.0,0.0,0.0,,,,-0.095886066556,0.00949543062598,0.194494858384,-5,-21,0.79054158926,2.81064844131,4.41200017929,47,77,,,,,,,,,,,,,,,,,,,,,,,,,,,,,,0.0,0.0,3.89839744568,12.2948570251,12.4954910278,-1.0,-1.0,,,,,,,,,,,,,,,,,,,,,,,,,,,,,,,,,,,,,,,,,,,,,,,,,,,,,,,,,,,,,,,,,,,,,,,,,,,,,,,,,,,,,,,,,,,,,,,,,,,,,,,109799175,PX4FMU_V1,6770a48684aa339926e77855ea4d0b9491666ebc,test,305419904.0
0.0183505304158,-0.00150488188956,-2.19765686989,-0.0496348105371,0.0021622851491,0.0152145344764,-0.967399895191,0.903620183468,-10.1700983047,0.0,0.0,-2.01050925255,0.378172576427,-0.967399895191,0.903620183468,-10.1700983047,-0.0271292105317,0.00604916829616,-0.000446798279881,-0.112135834992,0.172642409801,0.461842358112,1015.88000488,-21.8694934845,30.8199996948,0.0,0.0,0.0,0.0,0.0570132434368,0.0,0.0,0.0,0.0,0.0612112693489,0.0,0.0,0.0,10,0,0,20.0,1.52879261971,0.0,0.0,2.47155547142,-2.09553003311,,,,,,,,,,,,,,,,-0.00547531107441,0.000697131734341,0.0270709805191,0.378172576427,0,2,0,1.0,0,0,0.0,-0.0,0.378172576427,0.0272277221084,0.99816006422,0.656641602516,-0.998161792755,0.0,7,0,178.0,207.0,180.0,204.0,0.0,0.0,0.0,0.0,,,,-0.0917525887489,0.0075248372741,0.19568772614,19,-10,-2.52298641205,1.3361467123,4.41200017929,0,77,,,,,,,,,,,,,,,,,,,,,,,,,,,,,,0.0,0.0,3.89839744568,12.2864761353,12.4950647354,-1.0,-1.0,,,,,,,,,,,,,,,,,,,,,,,,,,,,,,,,,,,,,,,,,,,,,,,,,,,,,,,,,,,,,,,,,,,,,,,,,,,,,,,,,,,,,,,,,,,,,,,,,,,,,,,109821607,PX4FMU_V1,6770a48684aa339926e77855ea4d0b9491666ebc,test,305419904.0
0.0177527498454,-0.00136174960062,-2.19803595543,-0.0372655130923,0.0137350186706,0.00988445617259,-1.09162890911,1.13563680649,-10.1877698898,0.0,0.0,-2.00936174393,0.378172576427,-1.09162890911,1.13563680649,-10.1877698898,-0.0194631963968,0.0284133125097,0.00364545639604,-0.139657258987,0.171810179949,0.462732434273,1015.88000488,-21.8694934845,30.8199996948,0.0,0.0,0.0,0.0,0.06433776021,0.0,0.0,0.0,0.0,0.0595551095903,0.0,0.0,0.0,10,0,0,20.0,1.52891278267,0.0,0.0,2.47155547142,-2.09553003311,,,,,,,,,,,,,,,,-0.00669476389885,-0.000900368730072,0.0280997343361,0.378172576427,0,2,0,1.0,0,0,0.0,-0.0,0.378172576427,0.0272277221084,0.99816006422,0.656641602516,-0.998161792755,0.0,7,0,176.0,208.0,180.0,205.0,0.0,0.0,0.0,0.0,,,,-0.0887636989355,0.0068091051653,0.197216019034,0,0,0.0,0.0,4.41200017929,0,77,,,,,,,,,,,,,,,,,,,,,,,,,,,,,,0.0,0.0,3.89839744568,12.303237915,12.4946813583,-1.0,-1.0,,,,,,,,,,,,,,,,,,,,,,,,,,,,,,,,,,,,,,,,,,,,,,,,,,,,,,,,,,,,,,,,,,,,,,,,,,,,,,,,,,,,,,,,,,,,,,,,,,,,,,,109842461,PX4FMU_V1,6770a48684aa339926e77855ea4d0b9491666ebc,test,305419904.0
0.0177469272166,-0.000623841478955,-2.19844007492,-0.0209251549095,0.0129007585347,0.0190600119531,0.314112901688,0.68320608139,-10.094335556,0.0,0.0,-2.0082256794,0.378172576427,0.314112901688,0.68320608139,-10.094335556,-0.0483974851668,-0.0110585968941,0.0278101041913,-0.135070338845,0.170977935195,0.458281934261,1015.82000732,-21.3710803986,30.8099994659,0.0,0.0,0.0,0.0,0.0649491250515,0.0,0.0,0.0,0.0,0.0640445053577,0.0,0.0,0.0,10,0,0,20.0,1.52897274494,0.0,0.0,2.47155547142,-2.09553003311,,,,,,,,,,,,,,,,-0.0088152308017,-0.00127158069517,0.0269553940743,0.378172576427,0,2,0,1.0,0,0,0.0,-0.0,0.378172576427,0.0272277221084,0.99816006422,0.656641602516,-0.998161792755,0.0,7,0,175.0,208.0,182.0,204.0,0.0,0.0,0.0,0.0,,,,-0.08873462677,0.00311936810613,0.198762640357,0,0,0.0,0.0,4.41200017929,0,77,,,,,,,,,,,,,,,,,,,,,,,,,,,,,,0.0,0.0,3.89839744568,12.3199996948,12.4943237305,-1.0,-1.0,,,,,,,,,,,,,,,,,,,,,,,,,,,,,,,,,,,,,,,,,,,,,,,,,,,,,,,,,,,,,,,,,,,,,,,,,,,,,,,,,,,,,,,,,,,,,,,,,,,,,,,109863657,PX4FMU_V1,6770a48684aa339926e77855ea4d0b9491666ebc,test,305419904.0
0.0171448495239,-0.000816882180516,-2.1971373558,-0.0406954959035,-0.00523918494582,0.00923191197217,-0.426163554192,1.5179579258,-10.0046195984,0.0,0.0,-2.00684952736,0.380710661411,-0.426163554192,1.5179579258,-10.0046195984,-0.0408056974411,0.0150965219364,0.0144213950261,-0.101127289236,0.163487836719,0.455611586571,1015.77996826,-21.0387916565,30.8099994659,0.0,0.0,0.0,0.0,0.0642239451408,0.0,0.0,0.0,0.0,0.061595145613,0.0,0.0,0.0,10,0,0,20.0,1.52909243107,0.0,0.0,2.47155547142,-2.09553003311,,,,,,,,,,,,,,,,-0.00585373770446,0.00121209328063,0.0284404270351,0.380710661411,0,2,0,1.0,0,0,0.0,-0.0,0.380710661411,0.0272277221084,0.99816006422,0.656641602516,-0.998161792755,0.0,7,0,178.0,211.0,180.0,206.0,0.0,0.0,0.0,0.0,,,,-0.0857242494822,0.00408460898325,0.198834747076,9,-20,-1.30373692513,2.7420706749,4.41200017929,0,77,,,,,,,,,,,,,,,,,,,,,,,,,,,,,,0.0,0.0,3.89839744568,12.3116188049,12.4939584732,-1.0,-1.0,,,,,,,,,,,,,,,,,,,,,,,,,,,,,,,,,,,,,,,,,,,,,,,,,,,,,,,,,,,,,,,,,,,,,,,,,,,,,,,,,,,,,,,,,,,,,,,,,,,,,,,109885687,PX4FMU_V1,6770a48684aa339926e77855ea4d0b9491666ebc,test,305419904.0
0.0171157158911,-0.000450193299912,-2.1977455616,-0.0230174679309,0.0194763764739,0.0372185371816,0.298816382885,0.308327883482,-10.0301532745,0.0,0.0,-2.00576066971,0.384517759085,0.298816382885,0.308327883482,-10.0301532745,-0.0626879557967,0.0226893741637,0.0398390330374,-0.142409384251,0.179300293326,0.448490738869,1015.84997559,-21.6202907562,30.8099994659,0.0,0.0,0.0,0.0,0.0637589246035,0.0,0.0,0.0,0.0,0.061577539891,0.0,0.0,0.0,10,0,0,20.0,1.52921271324,0.0,0.0,2.47155547142,-2.09553003311,,,,,,,,,,,,,,,,-0.00813294295222,-0.00223928969353,0.0243807956576,0.384517759085,0,2,0,1.0,0,0,0.0,-0.0,0.384517759085,0.0247524753213,1.0,0.656641602516,-0.998161792755,0.0,7,0,180.0,211.0,186.0,206.0,0.0,0.0,0.0,0.0,,,,-0.0855785682797,0.00225106999278,0.199757173657,0,0,0.0,0.0,0.300000011921,0,77,,,,,,,,,,,,,,,,,,,,,,,,,,,,,,0.0,0.0,3.89839744568,12.303237915,12.4937677383,-1.0,-1.0,,,,,,,,,,,,,,,,,,,,,,,,,,,,,,,,,,,,,,,,,,,,,,,,,,,,,,,,,,,,,,,,,,,,,,,,,,,,,,,,,,,,,,,,,,,,,,,,,,,,,,,109907305,PX4FMU_V1,6770a48684aa339926e77855ea4d0b9491666ebc,test,305419904.0
0.0166220124811,-0.000177690366399,-2.19846796989,-0.044532597065,0.0176529306918,0.0392673127353,-0.651796102524,-0.924545526505,-10.1905155182,0.0,0.0,-2.00472831726,0.38832488656,-0.651796102524,-0.924545526505,-10.1905155182,-0.072291739285,0.028875913471,0.0173604506999,-0.128648683429,0.156829938293,0.457391798496,1015.82995605,-21.4541511536,30.8099994659,0.0,0.0,0.0,0.0,0.0670106783509,0.0,0.0,0.0,0.0,0.0600695572793,0.0,0.0,0.0,10,0,0,20.0,1.52933359146,0.0,0.0,2.47155547142,-2.09553003311,,,,,,,,,,,,,,,,-0.0050150686875,-0.00217937724665,0.0243370663375,0.38832488656,0,2,0,1.0,0,0,0.0,-0.0,0.38832488656,0.0247524753213,1.0,0.656641602516,-0.998161792755,0.0,7,0,183.0,211.0,187.0,209.0,0.0,0.0,0.0,0.0,,,,-0.083110049367,0.000888489943463,0.201514422894,0,0,0.0,0.0,0.300000011921,0,77,,,,,,,,,,,,,,,,,,,,,,,,,,,,,,0.0,0.0,3.89839744568,12.2948570251,12.4933700562,-1.0,-1.0,,,,,,,,,,,,,,,,,,,,,,,,,,,,,,,,,,,,,,,,,,,,,,,,,,,,,,,,,,,,,,,,,,,,,,,,,,,,,,,,,,,,,,,,,,,,,,,,,,,,,,,109928326,PX4FMU_V1,6770a48684aa339926e77855ea4d0b9491666ebc,test,305419904.0
0.0155052384362,0.000368789740605,-2.19649171829,-0.0543264858425,0.0278029162437,0.0175287593156,-0.19496384263,-0.0450032800436,-10.1440076828,0.0,0.0,-2.00348258018,0.392131984234,-0.19496384263,-0.0450032800436,-10.1440076828,-0.078950792551,0.0500636771321,-0.00144631369039,-0.120392255485,0.180964767933,0.457391798496,1015.85998535,-21.7033576965,30.7999992371,0.0,0.0,0.0,0.0,0.0696999132633,0.0,0.0,0.0,0.0,0.0597572773695,0.0,0.0,0.0,10,0,0,20.0,1.52945375443,0.0,0.0,2.47155547142,-2.09553003311,,,,,,,,,,,,,,,,-0.00301596336067,-0.00385410198942,0.0274889227003,0.392131984234,0,2,0,1.0,0,0,0.0,-0.0,0.392131984234,0.0247524753213,1.0,0.656641602516,-0.998161792755,0.0,7,0,184.0,213.0,187.0,214.0,0.0,0.0,0.0,0.0,,,,-0.077526204288,-0.00184402288869,0.200788229704,0,0,0.0,0.0,0.300000011921,0,77,,,,,,,,,,,,,,,,,,,,,,,,,,,,,,0.0,0.0,3.89839744568,12.2948570251,12.4929733276,-1.0,-1.0,,,,,,,,,,,,,,,,,,,,,,,,,,,,,,,,,,,,,,,,,,,,,,,,,,,,,,,,,,,,,,,,,,,,,,,,,,,,,,,,,,,,,,,,,,,,,,,,,,,,,,,109950602,PX4FMU_V1,6770a48684aa339926e77855ea4d0b9491666ebc,test,305419904.0
0.0144310211763,0.00120222801343,-2.19600296021,-0.0714049860835,0.0458904094994,0.0149339763448,-1.3115336895,-1.52457821369,-9.85981082916,0.0,0.0,-2.00245285034,0.392131984234,-1.3115336895,-1.52457821369,-9.85981082916,-0.0973873659968,0.0557369552553,-0.00387663207948,-0.111218452454,0.165984541178,0.463622540236,1015.83996582,-21.5372200012,30.7999992371,0.0,0.0,0.0,0.0,0.0719314143062,0.0,0.0,0.0,0.0,0.0608272254467,0.0,0.0,0.0,10,0,0,20.0,1.52951395512,0.0,0.0,2.47155547142,-2.09553003311,,,,,,,,,,,,,,,,-9.75084258243e-05,-0.00674722762778,0.0279601644725,0.392131984234,0,2,0,1.0,0,0,0.0,-0.0,0.392131984234,0.0247524753213,0.99816006422,0.656641602516,-0.998161792755,0.0,7,0,183.0,212.0,187.0,215.0,0.0,0.0,0.0,0.0,,,,-0.0721550509334,-0.00601134449244,0.201335057616,24,-4,-0.674763560295,0.115253016353,0.300000011921,0,77,,,,,,,,,,,,,,,,,,,,,,,,,,,,,,0.0,0.0,3.89839744568,12.303237915,12.4925851822,-1.0,-1.0,,,,,,,,,,,,,,,,,,,,,,,,,,,,,,,,,,,,,,,,,,,,,,,,,,,,,,,,,,,,,,,,,,,,,,,,,,,,,,,,,,,,,,,,,,,,,,,,,,,,,,,109971717,PX4FMU_V1,6770a48684aa339926e77855ea4d0b9491666ebc,test,305419904.0
0.0125550329685,0.00256692641415,-2.19570446014,-0.0761987194419,0.0541832223535,-0.00810882728547,-0.536305367947,0.0577612556517,-9.75544548035,0.0,0.0,-2.0012049675,0.392131984234,-0.536305367947,0.0577612556517,-9.75544548035,-0.0810285061598,0.0600633770227,-0.0214213933796,-0.113970600069,0.155165478587,0.454721480608,1015.82995605,-21.4541511536,30.7999992371,0.0,0.0,0.0,0.0,0.074550062418,0.0,0.0,0.0,0.0,0.060974933207,0.0,0.0,0.0,10,0,0,20.0,1.52963399887,0.0,0.0,2.47155547142,-2.09553003311,,,,,,,,,,,,,,,,0.00174508045893,-0.00871236436069,0.0315601080656,0.392131984234,0,2,0,1.0,0,0,0.0,-0.0,0.392131984234,0.0247524753213,1.0,0.656641602516,-0.998161792755,0.0,7,0,182.0,213.0,185.0,218.0,0.0,0.0,0.0,0.0,,,,-0.0627750232816,-0.0128349661827,0.202291876078,0,0,0.0,0.0,0.300000011921,0,77,,,,,,,,,,,,,,,,,,,,,,,,,,,,,,0.0,0.0,3.89839744568,12.303237915,12.4922151566,-1.0,-1.0,,,,,,,,,,,,,,,,,,,,,,,,,,,,,,,,,,,,,,,,,,,,,,,,,,,,,,,,,,,,,,,,,,,,,,,,,,,,,,,,,,,,,,,,,,,,,,,,,,,,,,,109994148,PX4FMU_V1,6770a48684aa339926e77855ea4d0b9491666ebc,test,305419904.0
0.0116971619427,0.00322580267675,-2.19722867012,-0.0190942678601,0.0193084385246,-0.0199298635125,-1.50291383266,-0.799267292023,-9.72663879395,0.0,0.0,-2.00016498566,0.402284264565,-1.50291383266,-0.799267292023,-9.72663879395,-0.006185982842,0.024788049981,-0.0334152653813,-0.143326759338,0.165152296424,0.457391798496,1015.90997314,-22.1186904907,30.7899990082,0.0,0.0,0.0,0.0,0.0806114375591,0.0,0.0,0.0,0.0,0.0630953460932,0.0,0.0,0.0,10,0,0,20.0,1.52975380421,0.0,0.0,2.47155547142,-2.09553003311,,,,,,,,,,,,,,,,-0.00512087298557,-0.00460691656917,0.0337183065712,0.402284264565,0,2,0,1.0,0,0,0.0,-0.0,0.402284264565,0.0247524753213,1.0,0.656641602516,-0.998161792755,0.0,7,0,186.0,221.0,190.0,221.0,0.0,0.0,0.0,0.0,,,,-0.0584856010973,-0.0161293819547,0.204858824611,0,0,0.0,0.0,0.300000011921,0,77,,,,,,,,,,,,,,,,,,,,,,,,,,,,,,0.0,0.0,3.89839744568,12.2948570251,12.492017746,-1.0,-1.0,,,,,,,,,,,,,,,,,,,,,,,,,,,,,,,,,,,,,,,,,,,,,,,,,,,,,,,,,,,,,,,,,,,,,,,,,,,,,,,,,,,,,,,,,,,,,,,,,,,,,,,110015171,PX4FMU_V1,6770a48684aa339926e77855ea4d0b9491666ebc,test,305419904.0
0.011860396713,0.00334186572582,-2.19765686989,0.0302163623273,-0.0430348515511,-0.0296725910157,-0.877765417099,-0.213583812118,-9.84722518921,0.0,0.0,-1.99912750721,0.404822349548,-0.877765417099,-0.213583812118,-9.84722518921,0.0322818085551,-0.0737629234791,-0.0166168957949,-0.119474872947,0.167649000883,0.468073099852,1015.88000488,-21.8694934845,30.7899990082,0.0,0.0,0.0,0.0,0.0877101048827,0.0,0.0,0.0,0.0,0.0662063956261,0.0,0.0,0.0,10,0,0,20.0,1.52987408638,0.0,0.0,2.47155547142,-2.09553003311,,,,,,,,,,,,,,,,-0.0116373561323,0.00342226703651,0.0353997014463,0.404822349548,0,2,0,1.0,0,0,0.0,-0.0,0.404822349548,0.0247524753213,0.99816006422,0.656641602516,-0.998161792755,0.0,7,0,186.0,228.0,190.0,220.0,0.0,0.0,0.0,0.0,,,,-0.059301763773,-0.0167097188532,0.206325411797,0,0,0.0,0.0,0.300000011921,0,77,,,,,,,,,,,,,,,,,,,,,,,,,,,,,,0.0,0.0,3.89839744568,12.2780952454,12.4916152954,-1.0,-1.0,,,,,,,,,,,,,,,,,,,,,,,,,,,,,,,,,,,,,,,,,,,,,,,,,,,,,,,,,,,,,,,,,,,,,,,,,,,,,,,,,,,,,,,,,,,,,,,,,,,,,,,110036226,PX4FMU_V1,6770a48684aa339926e77855ea4d0b9491666ebc,test,305419904.0
