ATT_Roll,ATT_Pitch,ATT_Yaw,ATT_RollRate,ATT_PitchRate,ATT_YawRate,ATT_GX,ATT_GY,ATT_GZ,ATSP_RollSP,ATSP_PitchSP,ATSP_YawSP,ATSP_ThrustSP,IMU_AccX,IMU_AccY,IMU_AccZ,IMU_GyroX,IMU_GyroY,IMU_GyroZ,IMU_MagX,IMU_MagY,IMU_MagZ,SENS_BaroPres,SENS_BaroAlt,SENS_BaroTemp,SENS_DiffPres,SENS_DiffPresFilt,LPOS_X,LPOS_Y,LPOS_Z,LPOS_Dist,LPOS_DistR,LPOS_VX,LPOS_VY,LPOS_VZ,LPOS_RLat,LPOS_RLon,LPOS_RAlt,LPOS_PFlg,LPOS_LFlg,LPOS_GFlg,LPOS_EPH,LPOS_EPV,LPSP_X,LPSP_Y,LPSP_Z,LPSP_Yaw,GPS_GPSTime,GPS_Fix,GPS_EPH,GPS_EPV,GPS_Lat,GPS_Lon,GPS_Alt,GPS_VelN,GPS_VelE,GPS_VelD,GPS_Cog,GPS_nSat,GPS_SNR,GPS_N,GPS_J,ATTC_Roll,ATTC_Pitch,ATTC_Yaw,ATTC_Thrust,STAT_MainState,STAT_ArmState,STAT_FailsafeState,STAT_BatRem,STAT_BatWarn,STAT_Landed,RC_Ch0,RC_Ch1,RC_Ch2,RC_Ch3,RC_Ch4,RC_Ch5,RC_Ch6,RC_Ch7,RC_Count,RC_SignalLost,OUT0_Out0,OUT0_Out1,OUT0_Out2,OUT0_Out3,OUT0_Out4,OUT0_Out5,OUT0_Out6,OUT0_Out7,AIRS_IndSpeed,AIRS_TrueSpeed,AIRS_AirTemp,ARSP_RollRateSP,ARSP_PitchRateSP,ARSP_YawRateSP,FLOW_RawX,FLOW_RawY,FLOW_CompX,FLOW_CompY,FLOW_Dist,FLOW_Q,FLOW_SensID,GPOS_Lat,GPOS_Lon,GPOS_Alt,GPOS_VelN,GPOS_VelE,GPOS_VelD,GPOS_EPH,GPOS_EPV,GPSP_NavState,GPSP_Lat,GPSP_Lon,GPSP_Alt,GPSP_Yaw,GPSP_Type,GPSP_LoitR,GPSP_LoitDir,GPSP_PitMin,ESC_count,ESC_nESC,ESC_Conn,ESC_N,ESC_Ver,ESC_Adr,ESC_Volt,ESC_Amp,ESC_RPM,ESC_Temp,ESC_SetP,ESC_SetPRAW,GVSP_VX,GVSP_VY,GVSP_VZ,BATT_V,BATT_VFilt,BATT_C,BATT_Discharged,DIST_Bottom,DIST_BottomRate,DIST_Flags,TELE_RSSI,TELE_RemRSSI,TELE_Noise,TELE_RemNoise,TELE_RXErr,TELE_Fixed,TELE_TXBuf,ESTM_s0,ESTM_s1,ESTM_s2,ESTM_s3,ESTM_s4,ESTM_s5,ESTM_s6,ESTM_s7,ESTM_s8,ESTM_s9,ESTM_nStat,ESTM_statNaN,ESTM_covNaN,ESTM_kGainNaN,PWR_Periph5V,PWR_Servo5V,PWR_RSSI,PWR_UsbOk,PWR_BrickOk,PWR_ServoOk,PWR_PeriphOC,PWR_HipwrOC,VICN_X,VICN_Y,VICN_Z,VICN_Roll,VICN_Pitch,VICN_Yaw,GS0A_s0,GS0A_s1,GS0A_s2,GS0A_s3,GS0A_s4,GS0A_s5,GS0A_s6,GS0A_s7,GS0A_s8,GS0A_s9,GS0A_s10,GS0A_s11,GS0A_s12,GS0A_s13,GS0A_s14,GS0A_s15,GS0B_s0,GS0B_s1,GS0B_s2,GS0B_s3,GS0B_s4,GS0B_s5,GS0B_s6,GS0B_s7,GS0B_s8,GS0B_s9,GS0B_s10,GS0B_s11,GS0B_s12,GS0B_s13,GS0B_s14,GS0B_s15,GS1A_s0,GS1A_s1,GS1A_s2,GS1A_s3,GS1A_s4,GS1A_s5,GS1A_s6,GS1A_s7,GS1A_s8,GS1A_s9,GS1A_s10,GS1A_s11,GS1A_s12,GS1A_s13,GS1A_s14,GS1A_s15,GS1B_s0,GS1B_s1,GS1B_s2,GS1B_s3,GS1B_s4,GS1B_s5,GS1B_s6,GS1B_s7,GS1B_s8,GS1B_s9,GS1B_s10,GS1B_s11,GS1B_s12,GS1B_s13,GS1B_s14,GS1B_s15,TIME_StartTime,VER_Arch,VER_FwGit,PARM_Name,PARM_Value
,,,,,,,,,,,,,,,,,,,,,,,,,,,,,,,,,,,,,,,,,,,,,,,,,,,,,,,,,,,,,,,,,,,,,,,,,,,,,,,,,,,,,,,,,,,,,,,,,,,,,,,,,,,,,,,,,,,,,,,,,,,,,,,,,,,,,,,,,,,,,,,,,,,,,,,,,,,,,,,,,,,,,,,,,,,,,,,,,,,,,,,,,,,,,,,,,,,,,,,,,,,,,,,,,,,,,,,,,,,,,,,,,,,,,,,,,,,,,,,,,,PX4FMU_V1,251760679a4bed86fdb10746062fde2cc23e460f,test,305419904.0
,,,,,,,,,,,,,,,,,,,,,,,,,,,,,,,,,,,,,,,,,,,,,,,,,,,,,,,,,,,,,,,,,,0,1,0,0.0,0,0,,,,,,,,,,,,,,,,,,,,,,,,,,,,,,,,,,,,,,,,,,,,,,,,,,,,,,,,,,,,,,,,,,,,,,,,,,,,,,,,,,,,,,,,,,,,,,,,,,,,,,,,,,,,,,,,,,,,,,,,,,,,,,,,,,,,,,,,,,,,,,,,,,,,,,,,,,,,,,,,,,,,,,,,,,1578330,PX4FMU_V1,251760679a4bed86fdb10746062fde2cc23e460f,test,305419904.0
0.00680617522448,-0.00633482821286,2.53951931,-0.00250181998126,-0.00441822456196,-0.00377165619284,-0.0724449008703,-0.0476195365191,-9.67977142334,,,,,-0.0724449008703,-0.0476195365191,-9.67977142334,-0.00241902191192,-0.00432056654245,-0.00349748157896,-0.169013425708,-0.116975307465,0.425347983837,1017.54998779,-35.7324180603,25.4399986267,0.0,0.0,0.0,0.0,0.0,0.0,0.0,0.0,0.0,0.0,0.0,0.0,0.0,0,0,0,0.0,0.0,,,,,,,,,,,,,,,,,,,,,,,,0,1,0,0.0,0,0,,,,,,,,,,,,,,,,,,,,,,,,,,,,,,,,,,,,,,,,,,,,,,,,,,,,,,,,,,,,,,,,11.5908565521,11.5991697311,-1.0,-1.0,,,,,,,,,,,,,,,,,,,,,,,,,,,,,,,,,,,,,,,,,,,,,,,,,,,,,,,,,,,,,,,,,,,,,,,,,,,,,,,,,,,,,,,,,,,,,,,,,,,,,,,1920841,PX4FMU_V1,251760679a4bed86fdb10746062fde2cc23e460f,test,305419904.0
0.00667564570904,-0.00645714160055,2.5378177166,-0.00241743633524,-0.00324552250095,-0.00367407035083,-0.068661339581,-0.0700948685408,-9.66969013214,,,,,-0.068661339581,-0.0700948685408,-9.66969013214,-0.00321381981485,-0.00310468790121,-0.00365640269592,-0.168096035719,-0.116975307465,0.424457877874,1017.57000732,-35.8983306885,25.4899997711,0.0,0.0,0.0,0.0,0.0,0.0,0.0,0.0,0.0,0.0,0.0,0.0,0.0,0,0,0,0.0,0.0,,,,,,,,,,,,,,,,,,,,,,,,0,1,0,0.0,0,0,,,,,,,,,,,,,,,,,,,,,,,,,,,,,,,,,,,,,,,,,,,,,,,,,,,,,,,,,,,,,,,,11.5908565521,11.599152565,-1.0,-1.0,,,,,,,,,,,,,,,,,,,,,,,,,,,,,,,,,,,,,,,,,,,,,,,,,,,,,,,,,,,,,,,,,,,,,,,,,,,,,,,,,,,,,,,,,,,,,,,,,,,,,,,1942792,PX4FMU_V1,251760679a4bed86fdb10746062fde2cc23e460f,test,305419904.0
0.0066284853965,-0.00657966127619,2.53799080849,-0.00300526386127,-0.00342447613366,-0.0035056869965,-0.0835199058056,-0.0606413707137,-9.69561958313,,,,,-0.0835199058056,-0.0606413707137,-9.69561958313,-0.00268078106456,-0.00315064471215,-0.00344856828451,-0.169013425708,-0.113646365702,0.423567771912,1017.50994873,-35.4005889893,25.4899997711,0.0,0.0,0.0,0.0,0.0,0.0,0.0,0.0,0.0,0.0,0.0,0.0,0.0,0,0,0,0.0,0.0,,,,,,,,,,,,,,,,,,,,,,,,0,1,0,0.0,0,0,,,,,,,,,,,,,,,,,,,,,,,,,,,,,,,,,,,,,,,,,,,,,,,,,,,,,,,,,,,,,,,,11.5908565521,11.5991439819,-1.0,-1.0,,,,,,,,,,,,,,,,,,,,,,,,,,,,,,,,,,,,,,,,,,,,,,,,,,,,,,,,,,,,,,,,,,,,,,,,,,,,,,,,,,,,,,,,,,,,,,,,,,,,,,,1964034,PX4FMU_V1,251760679a4bed86fdb10746062fde2cc23e460f,test,305419904.0
0.00655975751579,-0.00669616833329,2.53652238846,-0.00319360615686,-0.00363741768524,-0.003184360452,-0.0681712478399,-0.0657765716314,-9.67600822449,,,,,-0.0681712478399,-0.0657765716314,-9.67600822449,-0.00335855456069,-0.00364162260666,-0.0030447258614,-0.168096035719,-0.119472019374,0.424457877874,1017.67999268,-36.8107948303,25.5699996948,0.0,0.0,0.0,0.0,0.0,0.0,0.0,0.0,0.0,0.0,0.0,0.0,0.0,0,0,0,0.0,0.0,,,,,,,,,,,,,,,,,,,,,,,,0,1,0,0.0,0,0,,,,,,,,,,,,,,,,,,,,,,,,,,,,,,,,,,,,,,,,,,,,,,,,,,,,,,,,,,,,,,,,11.5992383957,11.5991439819,-1.0,-1.0,,,,,,,,,,,,,,,,,,,,,,,,,,,,,,,,,,,,,,,,,,,,,,,,,,,,,,,,,,,,,,,,,,,,,,,,,,,,,,,,,,,,,,,,,,,,,,,,,,,,,,,1985219,PX4FMU_V1,251760679a4bed86fdb10746062fde2cc23e460f,test,305419904.0
0.00648972019553,-0.00678652012721,2.53830814362,-0.00339605985209,-0.00405461387709,-0.00363921653479,-0.0609684213996,-0.053895033896,-9.6712141037,0.0,-0.0,2.53830814362,0.0,-0.0609684213996,-0.053895033896,-9.6712141037,-0.00288867112249,-0.00436386093497,-0.00375713454559,-0.168096035719,-0.111149668694,0.427128195763,1017.54998779,-35.7324180603,25.5699996948,0.0,0.0,0.0,0.0,0.0,0.0,0.0,0.0,0.0,0.0,0.0,0.0,0.0,0,0,0,0.0,0.0,,,,,,,,,,,,,,,,,,,,-0.00377676566131,0.0049383691512,0.000542583409697,0.0,0,1,0,0.0,0,0,,,,,,,,,,,,,,,,,,,,,,-0.032448105514,0.0339328423142,-2.19941157411e-05,,,,,,,,,,,,,,,,0,0.0,0.0,0.0,0.0,0,0.0,0,0.0,,,,,,,,,,,,,,,,11.5908565521,11.5991353989,-1.0,-1.0,,,,,,,,,,,,,,,,,,,,,,,,,,,,,,,,,,,,,,,,,,,,,,,,,,,,,,,,,,,,,,,,,,,,,,,,,,,,,,,,,,,,,,,,,,,,,,,,,,,,,,,2006919,PX4FMU_V1,251760679a4bed86fdb10746062fde2cc23e460f,test,305419904.0
0.00645435089245,-0.00684185186401,2.53861141205,-0.00252149370499,-0.00437187310308,-0.00307760969736,-0.0609773024917,-0.0748241618276,-9.69331932068,0.0,-0.0,2.53861141205,0.0,-0.0609773024917,-0.0748241618276,-9.69331932068,-0.0023627798073,-0.00413744477555,-0.00315712532029,-0.168096035719,-0.1128141433,0.425347983837,1017.70996094,-37.0596351624,25.6299991608,0.0,0.0,0.0,0.0,0.0,0.0,0.0,0.0,0.0,0.0,0.0,0.0,0.0,0,0,0,0.0,0.0,,,,,,,,,,,,,,,,,,,,-0.00386746763252,0.00501557765529,0.000458328955574,0.0,0,1,0,0.0,0,0,,,,,,,,,,,,,,,,,,,,,,-0.0322712473571,0.0342094935477,-2.20835227083e-05,,,,,,,,,,,,,,,,0,0.0,0.0,0.0,0.0,0,0.0,0,0.0,,,,,,,,,,,,,,,,11.5992383957,11.5991353989,-1.0,-1.0,,,,,,,,,,,,,,,,,,,,,,,,,,,,,,,,,,,,,,,,,,,,,,,,,,,,,,,,,,,,,,,,,,,,,,,,,,,,,,,,,,,,,,,,,,,,,,,,,,,,,,,2027410,PX4FMU_V1,251760679a4bed86fdb10746062fde2cc23e460f,test,305419904.0
0.00637117028236,-0.00690101645887,2.53779959679,-0.00342676206492,-0.00397941749543,-0.00231186044402,-0.0536403954029,-0.0501685366035,-9.67307662964,0.0,-0.0,2.53779959679,0.0,-0.0536403954029,-0.0501685366035,-9.67307662964,-0.00400267355144,-0.00393759040162,-0.00233730347827,-0.165343880653,-0.116975307465,0.423567771912,1017.63995361,-36.4790000916,25.6299991608,0.0,0.0,0.0,0.0,0.0,0.0,0.0,0.0,0.0,0.0,0.0,0.0,0.0,0,0,0,0.0,0.0,,,,,,,,,,,,,,,,,,,,-0.0036957161501,0.00500301504508,0.000343484425684,0.0,0,1,0,0.0,0,0,,,,,,,,,,,,,,,,,,,,,,-0.0318553484976,0.034505315125,-2.19643115997e-05,,,,,,,,,,,,,,,,0,0.0,0.0,0.0,0.0,0,0.0,0,0.0,,,,,,,,,,,,,,,,11.5992383957,11.5991353989,-1.0,-1.0,,,,,,,,,,,,,,,,,,,,,,,,,,,,,,,,,,,,,,,,,,,,,,,,,,,,,,,,,,,,,,,,,,,,,,,,,,,,,,,,,,,,,,,,,,,,,,,,,,,,,,,2048527,PX4FMU_V1,251760679a4bed86fdb10746062fde2cc23e460f,test,305419904.0
0.00628657033667,-0.00695457775146,2.53896856308,-0.00302449124865,-0.00365427974612,-0.0029769053217,-0.0660074651241,-0.049439381808,-9.68508338928,0.0,-0.0,2.53896856308,0.0,-0.0660074651241,-0.049439381808,-9.68508338928,-0.00253304629587,-0.00354037596844,-0.00321453437209,-0.169013425708,-0.111149668694,0.4262380898,1017.60998535,-36.2301445007,25.6299991608,0.0,0.0,0.0,0.0,0.0,0.0,0.0,0.0,0.0,0.0,0.0,0.0,0.0,0,0,0,0.0,0.0,,,,,,,,,,,,,,,,,,,,-0.00369302090257,0.00499556073919,0.000443259050371,0.0,0,1,0,0.0,0,0,,,,,,,,,,,,,,,,,,,,,,-0.0314323455095,0.0347731113434,-2.18451023102e-05,,,,,,,,,,,,,,,,0,0.0,0.0,0.0,0.0,0,0.0,0,0.0,,,,,,,,,,,,,,,,11.5992383957,11.5991268158,-1.0,-1.0,,,,,,,,,,,,,,,,,,,,,,,,,,,,,,,,,,,,,,,,,,,,,,,,,,,,,,,,,,,,,,,,,,,,,,,,,,,,,,,,,,,,,,,,,,,,,,,,,,,,,,,2069688,PX4FMU_V1,251760679a4bed86fdb10746062fde2cc23e460f,test,305419904.0
0.00618419423699,-0.00703086378053,2.53950381279,-0.00246380176395,-0.00462010968477,-0.00407045567408,-0.0642280578613,-0.0492018014193,-9.68099689484,0.0,-0.0,2.53950381279,0.0,-0.0642280578613,-0.0492018014193,-9.68099689484,-0.00283150700852,-0.00498083187267,-0.00418736692518,-0.16717864573,-0.111149668694,0.422677665949,1017.66998291,-36.727848053,25.6700000763,0.0,0.0,0.0,0.0,0.0,0.0,0.0,0.0,0.0,0.0,0.0,0.0,0.0,0,0,0,0.0,0.0,,,,,,,,,,,,,,,,,,,,-0.00369936530478,0.00517070526257,0.000607313937508,0.0,0,1,0,0.0,0,0,,,,,,,,,,,,,,,,,,,,,,-0.0309204608202,0.0351545475423,-2.16960888793e-05,,,,,,,,,,,,,,,,0,0.0,0.0,0.0,0.0,0,0.0,0,0.0,,,,,,,,,,,,,,,,11.5992383957,11.5991268158,-1.0,-1.0,,,,,,,,,,,,,,,,,,,,,,,,,,,,,,,,,,,,,,,,,,,,,,,,,,,,,,,,,,,,,,,,,,,,,,,,,,,,,,,,,,,,,,,,,,,,,,,,,,,,,,,2091307,PX4FMU_V1,251760679a4bed86fdb10746062fde2cc23e460f,test,305419904.0
0.00607601599768,-0.00709856348112,2.53816342354,-0.00333752995357,-0.00369311636314,-0.00281935068779,-0.0680857375264,-0.0501320287585,-9.679895401,0.0,-0.0,2.53816342354,0.0,-0.0680857375264,-0.0501320287585,-9.679895401,-0.00360473711044,-0.0029056314379,-0.00227641337551,-0.169013425708,-0.122800953686,0.421787559986,1017.63000488,-36.3960494995,25.6700000763,0.0,0.0,0.0,0.0,0.0,0.0,0.0,0.0,0.0,0.0,0.0,0.0,0.0,0,0,0,0.0,0.0,,,,,,,,,,,,,,,,,,,,-0.00351546541788,0.00509419944137,0.000419652671553,0.0,0,1,0,0.0,0,0,,,,,,,,,,,,,,,,,,,,,,-0.0303795728832,0.0354930348694,-2.16662865569e-05,,,,,,,,,,,,,,,,0,0.0,0.0,0.0,0.0,0,0.0,0,0.0,,,,,,,,,,,,,,,,11.5908565521,11.5991096497,-1.0,-1.0,,,,,,,,,,,,,,,,,,,,,,,,,,,,,,,,,,,,,,,,,,,,,,,,,,,,,,,,,,,,,,,,,,,,,,,,,,,,,,,,,,,,,,,,,,,,,,,,,,,,,,,2111933,PX4FMU_V1,251760679a4bed86fdb10746062fde2cc23e460f,test,305419904.0
0.00600792886689,-0.00715360511094,2.53868460655,-0.00326541555114,-0.00379984918982,-0.00282644061372,-0.0761490166187,-0.0557977817953,-9.68246555328,0.0,-0.0,2.53868460655,0.0,-0.0761490166187,-0.0557977817953,-9.68246555328,-0.00298748887144,-0.00416786596179,-0.00323388772085,-0.168096035719,-0.111149668694,0.425347983837,1017.72998047,-37.2255249023,25.6999988556,0.0,0.0,0.0,0.0,0.0,0.0,0.0,0.0,0.0,0.0,0.0,0.0,0.0,0,0,0,0.0,0.0,,,,,,,,,,,,,,,,,,,,-0.00348058249801,0.00514385104179,0.00042075192323,0.0,0,1,0,0.0,0,0,,,,,,,,,,,,,,,,,,,,,,-0.0300391279161,0.0357682369649,-2.14278697968e-05,,,,,,,,,,,,,,,,0,0.0,0.0,0.0,0.0,0,0.0,0,0.0,,,,,,,,,,,,,,,,11.5992383957,11.5991096497,-1.0,-1.0,,,,,,,,,,,,,,,,,,,,,,,,,,,,,,,,,,,,,,,,,,,,,,,,,,,,,,,,,,,,,,,,,,,,,,,,,,,,,,,,,,,,,,,,,,,,,,,,,,,,,,,2133083,PX4FMU_V1,251760679a4bed86fdb10746062fde2cc23e460f,test,305419904.0
0.00593461561948,-0.00723116006702,2.53952693939,-0.00286987191066,-0.00287702120841,-0.00332066928968,-0.0586731433868,-0.0592297539115,-9.6946849823,0.0,-0.0,2.53952693939,0.0,-0.0586731433868,-0.0592297539115,-9.6946849823,-0.00295060081407,-0.00271223206073,-0.00270330184139,-0.169930800796,-0.11031742394,0.425347983837,1017.67999268,-36.8107948303,25.6999988556,0.0,0.0,0.0,0.0,0.0,0.0,0.0,0.0,0.0,0.0,0.0,0.0,0.0,0,0,0,0.0,0.0,,,,,,,,,,,,,,,,,,,,-0.00348434923217,0.00507429428399,0.000494890729897,0.0,0,1,0,0.0,0,0,,,,,,,,,,,,,,,,,,,,,,-0.0296725593507,0.0361560098827,-2.13980692934e-05,,,,,,,,,,,,,,,,0,0.0,0.0,0.0,0.0,0,0.0,0,0.0,,,,,,,,,,,,,,,,11.5992383957,11.5991010666,-1.0,-1.0,,,,,,,,,,,,,,,,,,,,,,,,,,,,,,,,,,,,,,,,,,,,,,,,,,,,,,,,,,,,,,,,,,,,,,,,,,,,,,,,,,,,,,,,,,,,,,,,,,,,,,,2155333,PX4FMU_V1,251760679a4bed86fdb10746062fde2cc23e460f,test,305419904.0
0.00586655689403,-0.00726448697969,2.53965377808,-0.00311941932887,-0.00329263298772,-0.00274583231658,-0.0570776984096,-0.0511677674949,-9.66418647766,0.0,-0.0,2.53965377808,0.0,-0.0570776984096,-0.0511677674949,-9.66418647766,-0.00319284689613,-0.00360951758921,-0.00300403987058,-0.16717864573,-0.115310840309,0.419117242098,1017.63995361,-36.4790000916,25.6999988556,0.0,0.0,0.0,0.0,0.0,0.0,0.0,0.0,0.0,0.0,0.0,0.0,0.0,0,0,0,0.0,0.0,,,,,,,,,,,,,,,,,,,,-0.00340767018497,0.00514998519793,0.000408651743783,0.0,0,1,0,0.0,0,0,,,,,,,,,,,,,,,,,,,,,,-0.0293322689831,0.0363226421177,-2.14874726225e-05,,,,,,,,,,,,,,,,0,0.0,0.0,0.0,0.0,0,0.0,0,0.0,,,,,,,,,,,,,,,,11.5908565521,11.5990839005,-1.0,-1.0,,,,,,,,,,,,,,,,,,,,,,,,,,,,,,,,,,,,,,,,,,,,,,,,,,,,,,,,,,,,,,,,,,,,,,,,,,,,,,,,,,,,,,,,,,,,,,,,,,,,,,,2176310,PX4FMU_V1,251760679a4bed86fdb10746062fde2cc23e460f,test,305419904.0
0.00579218892381,-0.00731502939016,2.5394961834,-0.00310807698406,-0.00424023112282,-0.00374472467229,-0.0595499686897,-0.0589764043689,-9.66136550903,0.0,-0.0,2.5394961834,0.0,-0.0595499686897,-0.0589764043689,-9.66136550903,-0.00287316925824,-0.00451474497095,-0.00393757410347,-0.165343880653,-0.114478603005,0.425347983837,1017.69000244,-36.8937416077,25.7299995422,0.0,0.0,0.0,0.0,0.0,0.0,0.0,0.0,0.0,0.0,0.0,0.0,0.0,0,0,0,0.0,0.0,,,,,,,,,,,,,,,,,,,,-0.00336080510169,0.00530602503568,0.000558521365747,0.0,0,1,0,0.0,0,0,,,,,,,,,,,,,,,,,,,,,,-0.0289604254067,0.0365753471851,-2.12490576814e-05,,,,,,,,,,,,,,,,0,0.0,0.0,0.0,0.0,0,0.0,0,0.0,,,,,,,,,,,,,,,,11.5992383957,11.5990839005,-1.0,-1.0,,,,,,,,,,,,,,,,,,,,,,,,,,,,,,,,,,,,,,,,,,,,,,,,,,,,,,,,,,,,,,,,,,,,,,,,,,,,,,,,,,,,,,,,,,,,,,,,,,,,,,,2197589,PX4FMU_V1,251760679a4bed86fdb10746062fde2cc23e460f,test,305419904.0
0.00573355611414,-0.00740140490234,2.53928828239,-0.00260646408424,-0.00385472318158,-0.00341883278452,-0.0591183044016,-0.0500303283334,-9.68668460846,0.0,-0.0,2.53928828239,0.0,-0.0591183044016,-0.0500303283334,-9.68668460846,-0.0021463742014,-0.0035917526111,-0.00335572194308,-0.165343880653,-0.115310840309,0.428908407688,1017.66998291,-36.727848053,25.7299995422,0.0,0.0,0.0,0.0,0.0,0.0,0.0,0.0,0.0,0.0,0.0,0.0,0.0,0,0,0,0.0,0.0,,,,,,,,,,,,,,,,,,,,-0.00338790239766,0.00531205208972,0.000509642064571,0.0,0,1,0,0.0,0,0,,,,,,,,,,,,,,,,,,,,,,-0.0286672525108,0.0370072200894,-2.1219251721e-05,,,,,,,,,,,,,,,,0,0.0,0.0,0.0,0.0,0,0.0,0,0.0,,,,,,,,,,,,,,,,11.5992383957,11.5990753174,-1.0,-1.0,,,,,,,,,,,,,,,,,,,,,,,,,,,,,,,,,,,,,,,,,,,,,,,,,,,,,,,,,,,,,,,,,,,,,,,,,,,,,,,,,,,,,,,,,,,,,,,,,,,,,,,2219588,PX4FMU_V1,251760679a4bed86fdb10746062fde2cc23e460f,test,305419904.0
0.00567827094346,-0.00743830110878,2.53801250458,-0.00213773897849,-0.00341171678156,-0.0033019927796,-0.063721857965,-0.0581599660218,-9.66238975525,0.0,-0.0,2.53801250458,0.0,-0.063721857965,-0.0581599660218,-9.66238975525,-0.00239801569842,-0.00340302824043,-0.0034264754504,-0.168096035719,-0.125297650695,0.424457877874,1017.75,-37.3914146423,25.7600002289,0.0,0.0,0.0,0.0,0.0,0.0,0.0,0.0,0.0,0.0,0.0,0.0,0.0,0,0,0,0.0,0.0,,,,,,,,,,,,,,,,,,,,-0.00341290119104,0.00527844298631,0.000492129474878,0.0,0,1,0,0.0,0,0,,,,,,,,,,,,,,,,,,,,,,-0.0283908266574,0.0371916927397,-2.11298465729e-05,,,,,,,,,,,,,,,,0,0.0,0.0,0.0,0.0,0,0.0,0,0.0,,,,,,,,,,,,,,,,11.5908565521,11.5990667343,-1.0,-1.0,,,,,,,,,,,,,,,,,,,,,,,,,,,,,,,,,,,,,,,,,,,,,,,,,,,,,,,,,,,,,,,,,,,,,,,,,,,,,,,,,,,,,,,,,,,,,,,,,,,,,,,2240655,PX4FMU_V1,251760679a4bed86fdb10746062fde2cc23e460f,test,305419904.0
0.00562700908631,-0.00747815286741,2.53773736954,-0.0029062225949,-0.00305432477035,-0.00345044629648,-0.0601885579526,-0.057975679636,-9.67068099976,0.0,-0.0,2.53773736954,0.0,-0.0601885579526,-0.057975679636,-9.67068099976,-0.00327088101767,-0.00306878634728,-0.00325674074702,-0.165343880653,-0.115310840309,0.421787559986,1017.63995361,-36.4790000916,25.7600002289,0.0,0.0,0.0,0.0,0.0,0.0,0.0,0.0,0.0,0.0,0.0,0.0,0.0,0,0,0,0.0,0.0,,,,,,,,,,,,,,,,,,,,-0.00327967945486,0.00525788683444,0.000514410901815,0.0,0,1,0,0.0,0,0,,,,,,,,,,,,,,,,,,,,,,-0.0281345266849,0.0373909585178,-2.10404377867e-05,,,,,,,,,,,,,,,,0,0.0,0.0,0.0,0.0,0,0.0,0,0.0,,,,,,,,,,,,,,,,11.5992383957,11.5990581512,-1.0,-1.0,,,,,,,,,,,,,,,,,,,,,,,,,,,,,,,,,,,,,,,,,,,,,,,,,,,,,,,,,,,,,,,,,,,,,,,,,,,,,,,,,,,,,,,,,,,,,,,,,,,,,,,2261787,PX4FMU_V1,251760679a4bed86fdb10746062fde2cc23e460f,test,305419904.0
0.00556674972177,-0.00754558248445,2.5374519825,-0.00216278899461,-0.00331310275942,-0.00428654672578,-0.0636953860521,-0.0708038806915,-9.6737985611,0.0,-0.0,2.5374519825,0.0,-0.0636953860521,-0.0708038806915,-9.6737985611,-0.00180004409049,-0.00374034326524,-0.00451606651768,-0.168096035719,-0.111149668694,0.424457877874,1017.73999023,-37.3084716797,25.7899990082,0.0,0.0,0.0,0.0,0.0,0.0,0.0,0.0,0.0,0.0,0.0,0.0,0.0,0,0,0,0.0,0.0,,,,,,,,,,,,,,,,,,,,-0.00333715649322,0.00533535797149,0.000639834906906,0.0,0,1,0,0.0,0,0,,,,,,,,,,,,,,,,,,,,,,-0.0278332252055,0.0377281159163,-2.09808349609e-05,,,,,,,,,,,,,,,,0,0.0,0.0,0.0,0.0,0,0.0,0,0.0,,,,,,,,,,,,,,,,11.5992383957,11.5990581512,-1.0,-1.0,,,,,,,,,,,,,,,,,,,,,,,,,,,,,,,,,,,,,,,,,,,,,,,,,,,,,,,,,,,,,,,,,,,,,,,,,,,,,,,,,,,,,,,,,,,,,,,,,,,,,,,2283636,PX4FMU_V1,251760679a4bed86fdb10746062fde2cc23e460f,test,305419904.0
0.00554534280673,-0.00759332953021,2.5371363163,-0.00224650837481,-0.00422838842496,-0.00376857002266,-0.0690251737833,-0.049506239593,-9.68549537659,0.0,-0.0,2.5371363163,0.0,-0.0690251737833,-0.049506239593,-9.68549537659,-0.00235599442385,-0.00420307274908,-0.00327129662037,-0.166261270642,-0.116143077612,0.4262380898,1017.69995117,-36.976688385,25.7899990082,0.0,0.0,0.0,0.0,0.0,0.0,0.0,0.0,0.0,0.0,0.0,0.0,0.0,0,0,0,0.0,0.0,,,,,,,,,,,,,,,,,,,,-0.00331235770136,0.00548538006842,0.000562129484024,0.0,0,1,0,0.0,0,0,,,,,,,,,,,,,,,,,,,,,,-0.0277261845767,0.0379668474197,-2.10404396057e-05,,,,,,,,,,,,,,,,0,0.0,0.0,0.0,0.0,0,0.0,0,0.0,,,,,,,,,,,,,,,,11.5992383957,11.5990581512,-1.0,-1.0,,,,,,,,,,,,,,,,,,,,,,,,,,,,,,,,,,,,,,,,,,,,,,,,,,,,,,,,,,,,,,,,,,,,,,,,,,,,,,,,,,,,,,,,,,,,,,,,,,,,,,,2304047,PX4FMU_V1,251760679a4bed86fdb10746062fde2cc23e460f,test,305419904.0
0.00551304779947,-0.00768532371148,2.53707098961,-0.0026801622007,-0.00406072521582,-0.00216871872544,-0.079095646739,-0.0653546452522,-9.67576980591,0.0,-0.0,2.53707098961,0.0,-0.079095646739,-0.0653546452522,-9.67576980591,-0.00268009537831,-0.00354969245382,-0.00206742109731,-0.16717864573,-0.116975307465,0.41644692421,1017.69995117,-36.976688385,25.7899990082,0.0,0.0,0.0,0.0,0.0,0.0,0.0,0.0,0.0,0.0,0.0,0.0,0.0,0,0,0,0.0,0.0,,,,,,,,,,,,,,,,,,,,-0.00323498947546,0.00552337989211,0.000322138337651,0.0,0,1,0,0.0,0,0,,,,,,,,,,,,,,,,,,,,,,-0.0275646969676,0.0384268127382,-2.11298465729e-05,,,,,,,,,,,,,,,,0,0.0,0.0,0.0,0.0,0,0.0,0,0.0,,,,,,,,,,,,,,,,11.5992383957,11.5990581512,-1.0,-1.0,,,,,,,,,,,,,,,,,,,,,,,,,,,,,,,,,,,,,,,,,,,,,,,,,,,,,,,,,,,,,,,,,,,,,,,,,,,,,,,,,,,,,,,,,,,,,,,,,,,,,,,2325189,PX4FMU_V1,251760679a4bed86fdb10746062fde2cc23e460f,test,305419904.0
0.00543458061293,-0.00773178040981,2.5374879837,-0.00241305911914,-0.00410266034305,-0.0028720269911,-0.0331901945174,-0.0346814319491,-9.67993927002,0.0,-0.0,2.5374879837,0.0,-0.0331901945174,-0.0346814319491,-9.67993927002,-0.00239391182549,-0.00383311416954,-0.00327576510608,-0.16717864573,-0.111981905997,0.423567771912,1017.72998047,-37.2255249023,25.8099994659,0.0,0.0,0.0,0.0,0.0,0.0,0.0,0.0,0.0,0.0,0.0,0.0,0.0,0,0,0,0.0,0.0,,,,,,,,,,,,,,,,,,,,-0.00321870925836,0.0055590281263,0.000427639053669,0.0,0,1,0,0.0,0,0,,,,,,,,,,,,,,,,,,,,,,-0.0271723624319,0.0386590957642,-2.11000442505e-05,,,,,,,,,,,,,,,,0,0.0,0.0,0.0,0.0,0,0.0,0,0.0,,,,,,,,,,,,,,,,11.5992383957,11.5990581512,-1.0,-1.0,,,,,,,,,,,,,,,,,,,,,,,,,,,,,,,,,,,,,,,,,,,,,,,,,,,,,,,,,,,,,,,,,,,,,,,,,,,,,,,,,,,,,,,,,,,,,,,,,,,,,,,2347702,PX4FMU_V1,251760679a4bed86fdb10746062fde2cc23e460f,test,305419904.0
0.00533521734178,-0.00776166655123,2.53810858727,-0.0034228595905,-0.00347686978057,-0.00274768215604,-0.0727453604341,-0.0517657659948,-9.68416213989,0.0,-0.0,2.53810858727,0.0,-0.0727453604341,-0.0517657659948,-9.68416213989,-0.00381763698533,-0.00350920017809,-0.00265533220954,-0.168096035719,-0.114478603005,0.425347983837,1017.70996094,-37.0596351624,25.8099994659,0.0,0.0,0.0,0.0,0.0,0.0,0.0,0.0,0.0,0.0,0.0,0.0,0.0,0,0,0,0.0,0.0,,,,,,,,,,,,,,,,,,,,-0.00302284979261,0.0054970998317,0.000409058848163,0.0,0,1,0,0.0,0,0,,,,,,,,,,,,,,,,,,,,,,-0.0266755521297,0.038808517158,-2.06232070923e-05,,,,,,,,,,,,,,,,0,0.0,0.0,0.0,0.0,0,0.0,0,0.0,,,,,,,,,,,,,,,,11.5992383957,11.5990495682,-1.0,-1.0,,,,,,,,,,,,,,,,,,,,,,,,,,,,,,,,,,,,,,,,,,,,,,,,,,,,,,,,,,,,,,,,,,,,,,,,,,,,,,,,,,,,,,,,,,,,,,,,,,,,,,,2368514,PX4FMU_V1,251760679a4bed86fdb10746062fde2cc23e460f,test,305419904.0
0.00529260234907,-0.00782074499875,2.53840732574,-0.0033320938237,-0.00366580625996,-0.00392207875848,-0.0676937699318,-0.0571079775691,-9.66729450226,0.0,-0.0,2.53840732574,0.0,-0.0676937699318,-0.0571079775691,-9.66729450226,-0.00277826981619,-0.0038477985654,-0.00429631583393,-0.16717864573,-0.114478603005,0.425347983837,1017.75994873,-37.474357605,25.8299999237,0.0,0.0,0.0,0.0,0.0,0.0,0.0,0.0,0.0,0.0,0.0,0.0,0.0,0,0,0,0.0,0.0,,,,,,,,,,,,,,,,,,,,-0.0030069493223,0.00556006236002,0.000585196015891,0.0,0,1,0,0.0,0,0,,,,,,,,,,,,,,,,,,,,,,-0.0264624729753,0.0391039066017,-2.07722205232e-05,,,,,,,,,,,,,,,,0,0.0,0.0,0.0,0.0,0,0.0,0,0.0,,,,,,,,,,,,,,,,11.6076192856,11.5990581512,-1.0,-1.0,,,,,,,,,,,,,,,,,,,,,,,,,,,,,,,,,,,,,,,,,,,,,,,,,,,,,,,,,,,,,,,,,,,,,,,,,,,,,,,,,,,,,,,,,,,,,,,,,,,,,,,2389592,PX4FMU_V1,251760679a4bed86fdb10746062fde2cc23e460f,test,305419904.0
0.00523199466988,-0.00790302082896,2.53898668289,-0.0029856164474,-0.00324581912719,-0.00308535667136,-0.0740013644099,-0.0546041168272,-9.66706180573,0.0,-0.0,2.53898668289,0.0,-0.0740013644099,-0.0546041168272,-9.66706180573,-0.00291939405724,-0.00321860937402,-0.00307366019115,-0.168096035719,-0.111981905997,0.424457877874,1017.7199707,-37.1425819397,25.8299999237,0.0,0.0,0.0,0.0,0.0,0.0,0.0,0.0,0.0,0.0,0.0,0.0,0.0,0,0,0,0.0,0.0,,,,,,,,,,,,,,,,,,,,-0.00301259593107,0.00555894337595,0.000459701084765,0.0,0,1,0,0.0,0,0,,,,,,,,,,,,,,,,,,,,,,-0.026159433648,0.039515286684,-2.06828117371e-05,,,,,,,,,,,,,,,,0,0.0,0.0,0.0,0.0,0,0.0,0,0.0,,,,,,,,,,,,,,,,11.5908565521,11.5990409851,-1.0,-1.0,,,,,,,,,,,,,,,,,,,,,,,,,,,,,,,,,,,,,,,,,,,,,,,,,,,,,,,,,,,,,,,,,,,,,,,,,,,,,,,,,,,,,,,,,,,,,,,,,,,,,,,2411852,PX4FMU_V1,251760679a4bed86fdb10746062fde2cc23e460f,test,305419904.0
0.00519073195755,-0.007977087982,2.53920531273,-0.00277499319054,-0.00363364187069,-0.00306244473904,-0.0683974549174,-0.0600240007043,-9.67058372498,0.0,-0.0,2.53920531273,0.0,-0.0683974549174,-0.0600240007043,-9.67058372498,-0.0029870653525,-0.00360525632277,-0.00288970861584,-0.16717864573,-0.113646365702,0.425347983837,1017.7199707,-37.1425819397,25.8299999237,0.0,0.0,0.0,0.0,0.0,0.0,0.0,0.0,0.0,0.0,0.0,0.0,0.0,0,0,0,0.0,0.0,,,,,,,,,,,,,,,,,,,,-0.00301315495744,0.00565750245005,0.000456259847851,0.0,0,1,0,0.0,0,0,,,,,,,,,,,,,,,,,,,,,,-0.0259531084448,0.039885610342,-2.07126158784e-05,,,,,,,,,,,,,,,,0,0.0,0.0,0.0,0.0,0,0.0,0,0.0,,,,,,,,,,,,,,,,11.5992383957,11.5990409851,-1.0,-1.0,,,,,,,,,,,,,,,,,,,,,,,,,,,,,,,,,,,,,,,,,,,,,,,,,,,,,,,,,,,,,,,,,,,,,,,,,,,,,,,,,,,,,,,,,,,,,,,,,,,,,,,2432812,PX4FMU_V1,251760679a4bed86fdb10746062fde2cc23e460f,test,305419904.0
0.00513830222189,-0.0080149397254,2.53933596611,-0.00246312888339,-0.00324490433559,-0.0030478714034,-0.0650339573622,-0.0511100739241,-9.68619155884,0.0,-0.0,2.53933596611,0.0,-0.0650339573622,-0.0511100739241,-9.68619155884,-0.002094513271,-0.00325357774273,-0.00288058025762,-0.169013425708,-0.113646365702,0.428018301725,1017.7199707,-37.1425819397,25.8400001526,0.0,0.0,0.0,0.0,0.0,0.0,0.0,0.0,0.0,0.0,0.0,0.0,0.0,0,0,0,0.0,0.0,,,,,,,,,,,,,,,,,,,,-0.00301961787045,0.00563156837597,0.000454060413176,0.0,0,1,0,0.0,0,0,,,,,,,,,,,,,,,,,,,,,,-0.0256909597665,0.0400748550892,-2.08020210266e-05,,,,,,,,,,,,,,,,0,0.0,0.0,0.0,0.0,0,0.0,0,0.0,,,,,,,,,,,,,,,,11.5992383957,11.5990409851,-1.0,-1.0,,,,,,,,,,,,,,,,,,,,,,,,,,,,,,,,,,,,,,,,,,,,,,,,,,,,,,,,,,,,,,,,,,,,,,,,,,,,,,,,,,,,,,,,,,,,,,,,,,,,,,,2453938,PX4FMU_V1,251760679a4bed86fdb10746062fde2cc23e460f,test,305419904.0
0.00508414302021,-0.00809780135751,2.53981661797,-0.00279768113978,-0.00350497988984,-0.00270341336727,-0.0577173270285,-0.0530268065631,-9.66935348511,0.0,-0.0,2.53981661797,0.0,-0.0577173270285,-0.0530268065631,-9.66935348511,-0.00305038527586,-0.00361749297008,-0.00281010754406,-0.168096035719,-0.1128141433,0.425347983837,1017.69995117,-36.976688385,25.8400001526,0.0,0.0,0.0,0.0,0.0,0.0,0.0,0.0,0.0,0.0,0.0,0.0,0.0,0,0,0,0.0,0.0,,,,,,,,,,,,,,,,,,,,-0.00294092204422,0.00571924028918,0.000402431964176,0.0,0,1,0,0.0,0,0,,,,,,,,,,,,,,,,,,,,,,-0.0254201591015,0.0404891781509,-2.05338001251e-05,,,,,,,,,,,,,,,,0,0.0,0.0,0.0,0.0,0,0.0,0,0.0,,,,,,,,,,,,,,,,11.5992383957,11.5990409851,-1.0,-1.0,,,,,,,,,,,,,,,,,,,,,,,,,,,,,,,,,,,,,,,,,,,,,,,,,,,,,,,,,,,,,,,,,,,,,,,,,,,,,,,,,,,,,,,,,,,,,,,,,,,,,,,2475953,PX4FMU_V1,251760679a4bed86fdb10746062fde2cc23e460f,test,305419904.0
0.00504859676585,-0.00815306324512,2.54036283493,-0.00319685228169,-0.00426651444286,-0.0029612488579,-0.0785895287991,-0.0571901574731,-9.66129493713,0.0,-0.0,2.54036283493,0.0,-0.0785895287991,-0.0571901574731,-9.66129493713,-0.00315696443431,-0.00449374411255,-0.00291411066428,-0.16717864573,-0.113646365702,0.4262380898,1017.75,-37.3914146423,25.859998703,0.0,0.0,0.0,0.0,0.0,0.0,0.0,0.0,0.0,0.0,0.0,0.0,0.0,0,0,0,0.0,0.0,,,,,,,,,,,,,,,,,,,,-0.00286592310295,0.00585415866226,0.000441075972049,0.0,0,1,0,0.0,0,0,,,,,,,,,,,,,,,,,,,,,,-0.0252424161881,0.0407654754817,-2.07424145628e-05,,,,,,,,,,,,,,,,0,0.0,0.0,0.0,0.0,0,0.0,0,0.0,,,,,,,,,,,,,,,,11.5992383957,11.599032402,-1.0,-1.0,,,,,,,,,,,,,,,,,,,,,,,,,,,,,,,,,,,,,,,,,,,,,,,,,,,,,,,,,,,,,,,,,,,,,,,,,,,,,,,,,,,,,,,,,,,,,,,,,,,,,,,2497204,PX4FMU_V1,251760679a4bed86fdb10746062fde2cc23e460f,test,305419904.0
0.00499473931268,-0.00821180734783,2.54068589211,-0.00299217086285,-0.00428712414578,-0.00336887477897,-0.0522010102868,-0.0500265806913,-9.67513084412,0.0,-0.0,2.54068589211,0.0,-0.0522010102868,-0.0500265806913,-9.67513084412,-0.00328739266843,-0.00414232397452,-0.00330006540753,-0.165343880653,-0.111981905997,0.425347983837,1017.69000244,-36.8937416077,25.859998703,0.0,0.0,0.0,0.0,0.0,0.0,0.0,0.0,0.0,0.0,0.0,0.0,0.0,0,0,0,0.0,0.0,,,,,,,,,,,,,,,,,,,,-0.00285752513446,0.00589502137154,0.000502260110807,0.0,0,1,0,0.0,0,0,,,,,,,,,,,,,,,,,,,,,,-0.0249731335789,0.0410591959953,-2.04741954803e-05,,,,,,,,,,,,,,,,0,0.0,0.0,0.0,0.0,0,0.0,0,0.0,,,,,,,,,,,,,,,,11.5908565521,11.599023819,-1.0,-1.0,,,,,,,,,,,,,,,,,,,,,,,,,,,,,,,,,,,,,,,,,,,,,,,,,,,,,,,,,,,,,,,,,,,,,,,,,,,,,,,,,,,,,,,,,,,,,,,,,,,,,,,2518336,PX4FMU_V1,251760679a4bed86fdb10746062fde2cc23e460f,test,305419904.0
0.00495536345989,-0.00826558191329,2.54072403908,-0.0023309092503,-0.00325663969852,-0.00305970828049,-0.0758859589696,-0.0671345368028,-9.6563949585,0.0,-0.0,2.54072403908,0.0,-0.0758859589696,-0.0671345368028,-9.6563949585,-0.00218021753244,-0.00297055393457,-0.00320407096297,-0.16717864573,-0.11031742394,0.4262380898,1017.79998779,-37.8061218262,25.8799991608,0.0,0.0,0.0,0.0,0.0,0.0,0.0,0.0,0.0,0.0,0.0,0.0,0.0,0,0,0,0.0,0.0,,,,,,,,,,,,,,,,,,,,-0.00291789486073,0.0057960129343,0.000455885136034,0.0,0,1,0,0.0,0,0,,,,,,,,,,,,,,,,,,,,,,-0.0247762538493,0.0413280762732,-2.04741936614e-05,,,,,,,,,,,,,,,,0,0.0,0.0,0.0,0.0,0,0.0,0,0.0,,,,,,,,,,,,,,,,11.5908565521,11.5990066528,-1.0,-1.0,,,,,,,,,,,,,,,,,,,,,,,,,,,,,,,,,,,,,,,,,,,,,,,,,,,,,,,,,,,,,,,,,,,,,,,,,,,,,,,,,,,,,,,,,,,,,,,,,,,,,,,2540026,PX4FMU_V1,251760679a4bed86fdb10746062fde2cc23e460f,test,305419904.0
0.00488952361047,-0.00830091442913,2.54096794128,-0.00285889487714,-0.00339615857229,-0.00367032480426,-0.0587637685239,-0.0350354760885,-9.65756702423,0.0,-0.0,2.54096794128,0.0,-0.0587637685239,-0.0350354760885,-9.65756702423,-0.00310645578429,-0.00359316426329,-0.00382508826442,-0.168096035719,-0.111149668694,0.425347983837,1017.7199707,-37.1425819397,25.8799991608,0.0,0.0,0.0,0.0,0.0,0.0,0.0,0.0,0.0,0.0,0.0,0.0,0.0,0,0,0,0.0,0.0,,,,,,,,,,,,,,,,,,,,-0.00280646095052,0.00583711639047,0.000547499977984,0.0,0,1,0,0.0,0,0,,,,,,,,,,,,,,,,,,,,,,-0.0244470573962,0.041504740715,-2.03251838684e-05,,,,,,,,,,,,,,,,0,0.0,0.0,0.0,0.0,0,0.0,0,0.0,,,,,,,,,,,,,,,,11.5992383957,11.5990066528,-1.0,-1.0,,,,,,,,,,,,,,,,,,,,,,,,,,,,,,,,,,,,,,,,,,,,,,,,,,,,,,,,,,,,,,,,,,,,,,,,,,,,,,,,,,,,,,,,,,,,,,,,,,,,,,,2560614,PX4FMU_V1,251760679a4bed86fdb10746062fde2cc23e460f,test,305419904.0
0.00484022544697,-0.00834307167679,2.54019641876,-0.00310611794703,-0.00346033973619,-0.00320049514994,-0.0666242688894,-0.0633234530687,-9.67976951599,0.0,-0.0,2.54019641876,0.0,-0.0666242688894,-0.0633234530687,-9.67976951599,-0.00315473345108,-0.00387884466909,-0.00323127117008,-0.166261270642,-0.124465420842,0.424457877874,1017.7199707,-37.1425819397,25.8799991608,0.0,0.0,0.0,0.0,0.0,0.0,0.0,0.0,0.0,0.0,0.0,0.0,0.0,0,0,0,0.0,0.0,,,,,,,,,,,,,,,,,,,,-0.00274227792397,0.00587286194786,0.000477056804812,0.0,0,1,0,0.0,0,0,,,,,,,,,,,,,,,,,,,,,,-0.0242005642503,0.0417155213654,-2.01165676117e-05,,,,,,,,,,,,,,,,0,0.0,0.0,0.0,0.0,0,0.0,0,0.0,,,,,,,,,,,,,,,,11.5908565521,11.5989980698,-1.0,-1.0,,,,,,,,,,,,,,,,,,,,,,,,,,,,,,,,,,,,,,,,,,,,,,,,,,,,,,,,,,,,,,,,,,,,,,,,,,,,,,,,,,,,,,,,,,,,,,,,,,,,,,,2581696,PX4FMU_V1,251760679a4bed86fdb10746062fde2cc23e460f,test,305419904.0
0.00482905423269,-0.0083814477548,2.53981328011,-0.00285156141035,-0.00378289748915,-0.00331518915482,-0.0524793192744,-0.0644605234265,-9.66708755493,0.0,-0.0,2.53981328011,0.0,-0.0524793192744,-0.0644605234265,-9.66708755493,-0.00291278678924,-0.00377793586813,-0.00328677403741,-0.169930800796,-0.111981905997,0.424457877874,1017.75994873,-37.474357605,25.8799991608,0.0,0.0,0.0,0.0,0.0,0.0,0.0,0.0,0.0,0.0,0.0,0.0,0.0,0,0,0,0.0,0.0,,,,,,,,,,,,,,,,,,,,-0.00276810885407,0.0059397383593,0.000494260923006,0.0,0,1,0,0.0,0,0,,,,,,,,,,,,,,,,,,,,,,-0.0241447072476,0.0419073998928,-2.01165676117e-05,,,,,,,,,,,,,,,,0,0.0,0.0,0.0,0.0,0,0.0,0,0.0,,,,,,,,,,,,,,,,11.5908565521,11.5989894867,-1.0,-1.0,,,,,,,,,,,,,,,,,,,,,,,,,,,,,,,,,,,,,,,,,,,,,,,,,,,,,,,,,,,,,,,,,,,,,,,,,,,,,,,,,,,,,,,,,,,,,,,,,,,,,,,2604972,PX4FMU_V1,251760679a4bed86fdb10746062fde2cc23e460f,test,305419904.0
0.0047821351327,-0.00841340702027,2.53998875618,-0.00269241631031,-0.00391914136708,-0.00292370910756,-0.0595757141709,-0.0517675615847,-9.67050075531,0.0,-0.0,2.53998875618,0.0,-0.0595757141709,-0.0517675615847,-9.67050075531,-0.00237931264564,-0.00361104914919,-0.00295170536265,-0.166261270642,-0.111981905997,0.4262380898,1017.73999023,-37.3084716797,25.8799991608,0.0,0.0,0.0,0.0,0.0,0.0,0.0,0.0,0.0,0.0,0.0,0.0,0.0,0,0,0,0.0,0.0,,,,,,,,,,,,,,,,,,,,-0.00275830039755,0.00597822293639,0.000435538910097,0.0,0,1,0,0.0,0,0,,,,,,,,,,,0.0,0.0,0.0,0.0,0.0,0.0,0.0,0.0,,,,-0.023910112679,0.0420671924949,-2.01165694307e-05,,,,,,,,,,,,,,,,0,0.0,0.0,0.0,0.0,0,0.0,0,0.0,,,,,,,,,,,,,,,,11.5824756622,11.5989732742,-1.0,-1.0,,,,,,,,,,,,,,,,,,,,,,,,,,,,,,,,,,,,,,,,,,,,,,,,,,,,,,,,,,,,,,,,,,,,,,,,,,,,,,,,,,,,,,,,,,,,,,,,,,,,,,,2626030,PX4FMU_V1,251760679a4bed86fdb10746062fde2cc23e460f,test,305419904.0
0.00475667789578,-0.00846613012254,2.53975820541,-0.00328410090879,-0.00363874388859,-0.00387047301047,-0.0655155405402,-0.0790181532502,-9.67584228516,0.0,-0.0,2.53975820541,0.0,-0.0655155405402,-0.0790181532502,-9.67584228516,-0.003635288449,-0.00370857748203,-0.00385198974982,-0.164426535368,-0.114478603005,0.424457877874,1017.7699585,-37.5573005676,25.8899993896,0.0,0.0,0.0,0.0,0.0,0.0,0.0,0.0,0.0,0.0,0.0,0.0,0.0,0,0,0,0.0,0.0,,,,,,,,,,,,,,,,,,,,-0.00266483332962,0.0059760408476,0.000577557948418,0.0,0,1,0,0.0,0,0,,,,,,,,,,,0.0,0.0,0.0,0.0,0.0,0.0,0.0,0.0,,,,-0.0237828195095,0.042330801487,-2.00867652893e-05,,,,,,,,,,,,,,,,0,0.0,0.0,0.0,0.0,0,0.0,0,0.0,,,,,,,,,,,,,,,,11.5908565521,11.5989561081,-1.0,-1.0,,,,,,,,,,,,,,,,,,,,,,,,,,,,,,,,,,,,,,,,,,,,,,,,,,,,,,,,,,,,,,,,,,,,,,,,,,,,,,,,,,,,,,,,,,,,,,,,,,,,,,,2648350,PX4FMU_V1,251760679a4bed86fdb10746062fde2cc23e460f,test,305419904.0
0.00472603784874,-0.00852177664638,2.53986525536,-0.00341756246053,-0.00428233481944,-0.00432297820225,-0.0768311172724,-0.0603738166392,-9.66843605042,0.0,-0.0,2.53986525536,0.0,-0.0768311172724,-0.0603738166392,-9.66843605042,-0.00310469744727,-0.00453006662428,-0.00434225611389,-0.16717864573,-0.111149668694,0.425347983837,1017.7199707,-37.1425819397,25.8899993896,0.0,0.0,0.0,0.0,0.0,0.0,0.0,0.0,0.0,0.0,0.0,0.0,0.0,0,0,0,0.0,0.0,,,,,,,,,,,,,,,,,,,,-0.00262756645679,0.00609587691724,0.000645402469672,0.0,0,1,0,0.0,0,0,,,,,,,,,,,0.0,0.0,0.0,0.0,0.0,0.0,0.0,0.0,,,,-0.0236296132207,0.0426090285182,-2.0295381546e-05,,,,,,,,,,,,,,,,0,0.0,0.0,0.0,0.0,0,0.0,0,0.0,,,,,,,,,,,,,,,,11.5908565521,11.5989408493,-1.0,-1.0,,,,,,,,,,,,,,,,,,,,,,,,,,,,,,,,,,,,,,,,,,,,,,,,,,,,,,,,,,,,,,,,,,,,,,,,,,,,,,,,,,,,,,,,,,,,,,,,,,,,,,,2669260,PX4FMU_V1,251760679a4bed86fdb10746062fde2cc23e460f,test,305419904.0
0.00468112248927,-0.00859373901039,2.5403547287,-0.00275106658228,-0.00379043747671,-0.00384106743149,-0.0797417238355,-0.0355497300625,-9.68215179443,0.0,-0.0,2.5403547287,0.0,-0.0797417238355,-0.0355497300625,-9.68215179443,-0.0029471651651,-0.00369813805446,-0.00366200041026,-0.169013425708,-0.111981905997,0.427128195763,1017.7699585,-37.5573005676,25.8999996185,0.0,0.0,0.0,0.0,0.0,0.0,0.0,0.0,0.0,0.0,0.0,0.0,0.0,0,0,0,0.0,0.0,,,,,,,,,,,,,,,,,,,,-0.00268501625396,0.00607870705426,0.000573129218537,0.0,0,1,0,0.0,0,0,,,,,,,,,,,0.0,0.0,0.0,0.0,0.0,0.0,0.0,0.0,,,,-0.023405039683,0.0429688468575,-2.02059745789e-05,,,,,,,,,,,,,,,,0,0.0,0.0,0.0,0.0,0,0.0,0,0.0,,,,,,,,,,,,,,,,11.5992383957,11.5989332199,-1.0,-1.0,,,,,,,,,,,,,,,,,,,,,,,,,,,,,,,,,,,,,,,,,,,,,,,,,,,,,,,,,,,,,,,,,,,,,,,,,,,,,,,,,,,,,,,,,,,,,,,,,,,,,,,2690383,PX4FMU_V1,251760679a4bed86fdb10746062fde2cc23e460f,test,305419904.0
0.00462626433,-0.0086519215256,2.54061579704,-0.00221404805779,-0.00277981464751,-0.00308842211962,-0.0783590301871,-0.0635640323162,-9.67274665833,0.0,-0.0,2.54061579704,0.0,-0.0783590301871,-0.0635640323162,-9.67274665833,-0.00211320980452,-0.0030206493102,-0.00311985402368,-0.166261270642,-0.114478603005,0.427128195763,1017.70996094,-37.0596351624,25.8999996185,0.0,0.0,0.0,0.0,0.0,0.0,0.0,0.0,0.0,0.0,0.0,0.0,0.0,0,0,0,0.0,0.0,,,,,,,,,,,,,,,,,,,,-0.00271916994825,0.00598514499143,0.000460268202005,0.0,0,1,0,0.0,0,0,,,,,,,,,,,0.0,0.0,0.0,0.0,0.0,0.0,0.0,0.0,,,,-0.0231307409704,0.0432597622275,-1.99675578187e-05,,,,,,,,,,,,,,,,0,0.0,0.0,0.0,0.0,0,0.0,0,0.0,,,,,,,,,,,,,,,,11.5992383957,11.5989255905,-1.0,-1.0,,,,,,,,,,,,,,,,,,,,,,,,,,,,,,,,,,,,,,,,,,,,,,,,,,,,,,,,,,,,,,,,,,,,,,,,,,,,,,,,,,,,,,,,,,,,,,,,,,,,,,,2712404,PX4FMU_V1,251760679a4bed86fdb10746062fde2cc23e460f,test,305419904.0
0.00457392539829,-0.00870408955961,2.54093503952,-0.00268622720614,-0.00375828915276,-0.00304821645841,-0.0685744732618,-0.0321515053511,-9.66904449463,0.0,-0.0,2.54093503952,0.0,-0.0685744732618,-0.0321515053511,-9.66904449463,-0.00313212885521,-0.00415828824043,-0.00278722099029,-0.164426535368,-0.11031742394,0.424457877874,1017.70996094,-37.0596351624,25.8999996185,0.0,0.0,0.0,0.0,0.0,0.0,0.0,0.0,0.0,0.0,0.0,0.0,0.0,0,0,0,0.0,0.0,,,,,,,,,,,,,,,,,,,,-0.00262376619503,0.00614625541493,0.000454250752227,0.0,0,1,0,0.0,0,0,,,,,,,,,,,0.0,0.0,0.0,0.0,0.0,0.0,0.0,0.0,,,,-0.0228690449148,0.0435205996037,-1.98781490326e-05,,,,,,,,,,,,,,,,0,0.0,0.0,0.0,0.0,0,0.0,0,0.0,,,,,,,,,,,,,,,,11.5908565521,11.5989179611,-1.0,-1.0,,,,,,,,,,,,,,,,,,,,,,,,,,,,,,,,,,,,,,,,,,,,,,,,,,,,,,,,,,,,,,,,,,,,,,,,,,,,,,,,,,,,,,,,,,,,,,,,,,,,,,,2733682,PX4FMU_V1,251760679a4bed86fdb10746062fde2cc23e460f,test,305419904.0
0.00453909672797,-0.00874181371182,2.54099273682,-0.00290679256432,-0.00331916706637,-0.00309073249809,-0.0605431869626,-0.0650670826435,-9.6647977829,0.0,-0.0,2.54099273682,0.0,-0.0605431869626,-0.0650670826435,-9.6647977829,-0.00305673503317,-0.00310142850503,-0.003424158087,-0.166261270642,-0.113646365702,0.423567771912,1017.73999023,-37.3084716797,25.9200000763,0.0,0.0,0.0,0.0,0.0,0.0,0.0,0.0,0.0,0.0,0.0,0.0,0.0,0,0,0,0.0,0.0,,,,,,,,,,,,,,,,,,,,-0.00257245451212,0.00611368892714,0.000460619223304,0.0,0,1,0,0.0,0,0,,,,,,,,,,,0.0,0.0,0.0,0.0,0.0,0.0,0.0,0.0,,,,-0.0226949043572,0.0437092110515,-1.99377554964e-05,,,,,,,,,,,,,,,,0,0.0,0.0,0.0,0.0,0,0.0,0,0.0,,,,,,,,,,,,,,,,11.6076192856,11.5989265442,-1.0,-1.0,,,,,,,,,,,,,,,,,,,,,,,,,,,,,,,,,,,,,,,,,,,,,,,,,,,,,,,,,,,,,,,,,,,,,,,,,,,,,,,,,,,,,,,,,,,,,,,,,,,,,,,2754810,PX4FMU_V1,251760679a4bed86fdb10746062fde2cc23e460f,test,305419904.0
0.00447709206492,-0.00879059918225,2.54156565666,-0.0035737818107,-0.00332444906235,-0.00289825536311,-0.0554432198405,-0.0463575460017,-9.67703533173,0.0,-0.0,2.54156565666,0.0,-0.0554432198405,-0.0463575460017,-9.67703533173,-0.0037424848415,-0.00345004932024,-0.00262430915609,-0.165343880653,-0.109485201538,0.422677665949,1017.75994873,-37.474357605,25.9200000763,0.0,0.0,0.0,0.0,0.0,0.0,0.0,0.0,0.0,0.0,0.0,0.0,0.0,0,0,0,0.0,0.0,,,,,,,,,,,,,,,,,,,,-0.00244544330053,0.00614608684555,0.000431774475146,0.0,0,1,0,0.0,0,0,,,,,,,,,,,0.0,0.0,0.0,0.0,0.0,0.0,0.0,0.0,,,,-0.0223848856986,0.0439531430602,-1.9758939743e-05,,,,,,,,,,,,,,,,0,0.0,0.0,0.0,0.0,0,0.0,0,0.0,,,,,,,,,,,,,,,,11.5992383957,11.5989189148,-1.0,-1.0,,,,,,,,,,,,,,,,,,,,,,,,,,,,,,,,,,,,,,,,,,,,,,,,,,,,,,,,,,,,,,,,,,,,,,,,,,,,,,,,,,,,,,,,,,,,,,,,,,,,,,,2776695,PX4FMU_V1,251760679a4bed86fdb10746062fde2cc23e460f,test,305419904.0
0.00442598154768,-0.0088181225583,2.54166936874,-0.00347191258334,-0.00321375066414,-0.00390530820005,-0.0754701718688,-0.055681694299,-9.67224693298,0.0,-0.0,2.54166936874,0.0,-0.0754701718688,-0.055681694299,-9.67224693298,-0.00365244434215,-0.00325176166371,-0.00419603521004,-0.16717864573,-0.111149668694,0.4262380898,1017.77996826,-37.6402397156,25.9200000763,0.0,0.0,0.0,0.0,0.0,0.0,0.0,0.0,0.0,0.0,0.0,0.0,0.0,0,0,0,0.0,0.0,,,,,,,,,,,,,,,,,,,,-0.00242546433583,0.0061495853588,0.000582863693126,0.0,0,1,0,0.0,0,0,,,,,,,,,,,0.0,0.0,0.0,0.0,0.0,0.0,0.0,0.0,,,,-0.0221293307841,0.0440907515585,-1.95503234863e-05,,,,,,,,,,,,,,,,0,0.0,0.0,0.0,0.0,0,0.0,0,0.0,,,,,,,,,,,,,,,,11.5992383957,11.5989112854,-1.0,-1.0,,,,,,,,,,,,,,,,,,,,,,,,,,,,,,,,,,,,,,,,,,,,,,,,,,,,,,,,,,,,,,,,,,,,,,,,,,,,,,,,,,,,,,,,,,,,,,,,,,,,,,,2797328,PX4FMU_V1,251760679a4bed86fdb10746062fde2cc23e460f,test,305419904.0
0.00438466621563,-0.0088670430705,2.54190325737,-0.00346212205477,-0.0038787049707,-0.00341267650947,-0.0629761070013,-0.0578398332,-9.6792345047,0.0,-0.0,2.54190325737,0.0,-0.0629761070013,-0.0578398332,-9.6792345047,-0.00323763443157,-0.00395605247468,-0.00317094405182,-0.16717864573,-0.11031742394,0.427128195763,1017.72998047,-37.2255249023,25.9200000763,0.0,0.0,0.0,0.0,0.0,0.0,0.0,0.0,0.0,0.0,0.0,0.0,0.0,0,0,0,0.0,0.0,,,,,,,,,,,,,,,,,,,,-0.00239988206886,0.00626782700419,0.00050897343317,0.0,0,1,0,0.0,0,0,,,,,,,,,,,0.0,0.0,0.0,0.0,0.0,0.0,0.0,0.0,,,,-0.0219227541238,0.0443353503942,-1.95205229829e-05,,,,,,,,,,,,,,,,0,0.0,0.0,0.0,0.0,0,0.0,0,0.0,,,,,,,,,,,,,,,,11.5992383957,11.5989112854,-1.0,-1.0,,,,,,,,,,,,,,,,,,,,,,,,,,,,,,,,,,,,,,,,,,,,,,,,,,,,,,,,,,,,,,,,,,,,,,,,,,,,,,,,,,,,,,,,,,,,,,,,,,,,,,,2818149,PX4FMU_V1,251760679a4bed86fdb10746062fde2cc23e460f,test,305419904.0
0.00429240940139,-0.00894200708717,2.54204201698,-0.00314492848702,-0.0029050623998,-0.00278918631375,-0.0705639049411,-0.0646479725838,-9.66813182831,0.0,-0.0,2.54204201698,0.0,-0.0705639049411,-0.0646479725838,-9.66813182831,-0.00307298917323,-0.00342083582655,-0.00275747571141,-0.168096035719,-0.111981905997,0.423567771912,1017.75,-37.3914146423,25.9200000763,0.0,0.0,0.0,0.0,0.0,0.0,0.0,0.0,0.0,0.0,0.0,0.0,0.0,0,0,0,0.0,0.0,,,,,,,,,,,,,,,,,,,,-0.00238115061074,0.00618998054415,0.000415503542172,0.0,0,1,0,0.0,0,0,,,,,,,,,,,0.0,0.0,0.0,0.0,0.0,0.0,0.0,0.0,,,,-0.0214614737779,0.0447101742029,-1.91628951143e-05,0,0,0.0,0.0,0.300000011921,0,77,,,,,,,,,0,0.0,0.0,0.0,0.0,0,0.0,0,0.0,,,,,,,,,,,,,,,,11.5908565521,11.5988960266,-1.0,-1.0,,,,,,,,,,,,,,,,,,,,,,,,,,,,,,,,,,,,,,,,,,,,,,,,,,,,,,,,,,,,,,,,,,,,,,,,,,,,,,,,,,,,,,,,,,,,,,,,,,,,,,,2868988,PX4FMU_V1,251760679a4bed86fdb10746062fde2cc23e460f,test,305419904.0
0.00425199465826,-0.00898756738752,2.54216361046,-0.00409566005692,-0.00381368258968,-0.0032521027606,-0.0690537393093,-0.0513033047318,-9.68104171753,0.0,-0.0,2.54216361046,0.0,-0.0690537393093,-0.0513033047318,-9.68104171753,-0.00401851441711,-0.00372998649254,-0.00346977007575,-0.168096035719,-0.111149668694,0.425347983837,1017.75,-37.3914146423,25.9200000763,0.0,0.0,0.0,0.0,0.0,0.0,0.0,0.0,0.0,0.0,0.0,0.0,0.0,0,0,0,0.0,0.0,,,,,,,,,,,,,,,,,,,,-0.00223128497601,0.00633771298453,0.000484949938254,0.0,0,1,0,0.0,0,0,,,,,,,,,,,0.0,0.0,0.0,0.0,0.0,0.0,0.0,0.0,,,,-0.0212593916804,0.0449379570782,-1.91032904695e-05,4,-21,-0.0361201651394,0.191235542297,0.300000011921,0,77,,,,,,,,,0,0.0,0.0,0.0,0.0,0,0.0,0,0.0,,,,,,,,,,,,,,,,11.5992383957,11.5988960266,-1.0,-1.0,,,,,,,,,,,,,,,,,,,,,,,,,,,,,,,,,,,,,,,,,,,,,,,,,,,,,,,,,,,,,,,,,,,,,,,,,,,,,,,,,,,,,,,,,,,,,,,,,,,,,,,2889692,PX4FMU_V1,251760679a4bed86fdb10746062fde2cc23e460f,test,305419904.0
0.00422218022868,-0.00903378520161,2.54257655144,-0.00253389310092,-0.00342470942996,-0.00350710423663,-0.0653843581676,-0.06201229617,-9.66564178467,0.0,-0.0,2.54257655144,0.0,-0.0653843581676,-0.06201229617,-9.66564178467,-0.00219167117029,-0.00331545271911,-0.00355540635064,-0.16717864573,-0.111149668694,0.425347983837,1017.82000732,-37.9720001221,25.9399986267,0.0,0.0,0.0,0.0,0.0,0.0,0.0,0.0,0.0,0.0,0.0,0.0,0.0,0,0,0,0.0,0.0,,,,,,,,,,,,,,,,,,,,-0.00241493666545,0.00631718989462,0.000523209106177,0.0,0,1,0,0.0,0,0,,,,,,,,,,,0.0,0.0,0.0,0.0,0.0,0.0,0.0,0.0,,,,-0.0211103279144,0.0451690629125,-1.90436840057e-05,0,0,0.0,0.0,0.300000011921,0,77,,,,,,,,,0,0.0,0.0,0.0,0.0,0,0.0,0,0.0,,,,,,,,,,,,,,,,11.5908565521,11.5988883972,-1.0,-1.0,,,,,,,,,,,,,,,,,,,,,,,,,,,,,,,,,,,,,,,,,,,,,,,,,,,,,,,,,,,,,,,,,,,,,,,,,,,,,,,,,,,,,,,,,,,,,,,,,,,,,,,2910801,PX4FMU_V1,251760679a4bed86fdb10746062fde2cc23e460f,test,305419904.0
0.00419696513563,-0.00907204393297,2.54255723953,-0.00212746602483,-0.00344274472445,-0.00409760791808,-0.0692963600159,-0.0447486788034,-9.66996860504,0.0,-0.0,2.54255723953,0.0,-0.0692963600159,-0.0447486788034,-9.66996860504,-0.00272506708279,-0.00350283854641,-0.00370324007235,-0.169013425708,-0.117807544768,0.418227136135,1017.75,-37.3914146423,25.9399986267,0.0,0.0,0.0,0.0,0.0,0.0,0.0,0.0,0.0,0.0,0.0,0.0,0.0,0,0,0,0.0,0.0,,,,,,,,,,,,,,,,,,,,-0.00245138234459,0.00634440314025,0.000611780211329,0.0,0,1,0,0.0,0,0,,,,,,,,,,,0.0,0.0,0.0,0.0,0.0,0.0,0.0,0.0,,,,-0.0209842547774,0.0453603565693,-1.90734863281e-05,0,0,0.0,0.0,0.300000011921,0,77,,,,,,,,,0,0.0,0.0,0.0,0.0,0,0.0,0,0.0,,,,,,,,,,,,,,,,11.5908565521,11.5988807678,-1.0,-1.0,,,,,,,,,,,,,,,,,,,,,,,,,,,,,,,,,,,,,,,,,,,,,,,,,,,,,,,,,,,,,,,,,,,,,,,,,,,,,,,,,,,,,,,,,,,,,,,,,,,,,,,2933104,PX4FMU_V1,251760679a4bed86fdb10746062fde2cc23e460f,test,305419904.0
0.00414386251941,-0.00912967789918,2.54241037369,-0.00313312886283,-0.00377081288025,-0.00322457915172,-0.0666773989797,-0.0578511655331,-9.69002819061,0.0,-0.0,2.54241037369,0.0,-0.0666773989797,-0.0578511655331,-9.69002819061,-0.00296299392357,-0.00378805864602,-0.00304732006043,-0.169013425708,-0.116975307465,0.417337030172,1017.7699585,-37.5573005676,25.9300003052,0.0,0.0,0.0,0.0,0.0,0.0,0.0,0.0,0.0,0.0,0.0,0.0,0.0,0,0,0,0.0,0.0,,,,,,,,,,,,,,,,,,,,-0.00228612869978,0.00642451178282,0.000480821385281,0.0,0,1,0,0.0,0,0,,,,,,,,,,,0.0,0.0,0.0,0.0,0.0,0.0,0.0,0.0,,,,-0.0207187347114,0.0456485114992,-1.91032868315e-05,0,0,0.0,0.0,0.300000011921,0,77,,,,,,,,,0,0.0,0.0,0.0,0.0,0,0.0,0,0.0,,,,,,,,,,,,,,,,11.5908565521,11.5988731384,-1.0,-1.0,,,,,,,,,,,,,,,,,,,,,,,,,,,,,,,,,,,,,,,,,,,,,,,,,,,,,,,,,,,,,,,,,,,,,,,,,,,,,,,,,,,,,,,,,,,,,,,,,,,,,,,2954157,PX4FMU_V1,251760679a4bed86fdb10746062fde2cc23e460f,test,305419904.0
0.00410117581487,-0.00915590673685,2.54223132133,-0.00283616664819,-0.00365608278662,-0.00390221038833,-0.0455120317638,-0.0397430472076,-9.69148540497,0.0,-0.0,2.54223132133,0.0,-0.0455120317638,-0.0397430472076,-9.69148540497,-0.00271504605189,-0.00302428402938,-0.00398047268391,-0.166261270642,-0.111149668694,0.425347983837,1017.73999023,-37.3084716797,25.9300003052,0.0,0.0,0.0,0.0,0.0,0.0,0.0,0.0,0.0,0.0,0.0,0.0,0.0,0,0,0,0.0,0.0,,,,,,,,,,,,,,,,,,,,-0.00229698768817,0.00642664637417,0.000582497392315,0.0,0,1,0,0.0,0,0,,,,,,,,,,,0.0,0.0,0.0,0.0,0.0,0.0,0.0,0.0,,,,-0.020505303517,0.0457796603441,-1.88946723938e-05,-1,-16,0.0136364800856,0.126137420535,0.300000011921,43,77,,,,,,,,,0,0.0,0.0,0.0,0.0,0,0.0,0,0.0,,,,,,,,,,,,,,,,11.5908565521,11.598865509,-1.0,-1.0,,,,,,,,,,,,,,,,,,,,,,,,,,,,,,,,,,,,,,,,,,,,,,,,,,,,,,,,,,,,,,,,,,,,,,,,,,,,,,,,,,,,,,,,,,,,,,,,,,,,,,,2975517,PX4FMU_V1,251760679a4bed86fdb10746062fde2cc23e460f,test,305419904.0
0.0040342155844,-0.00917193293571,2.54248070717,-0.00262258946896,-0.00263418490067,-0.00327112595551,-0.063493065536,-0.0453679338098,-9.67548561096,0.0,-0.0,2.54248070717,0.0,-0.063493065536,-0.0453679338098,-9.67548561096,-0.00271628447808,-0.00307477638125,-0.00316215888597,-0.16717864573,-0.114478603005,0.4262380898,1017.77996826,-37.6402397156,25.9300003052,0.0,0.0,0.0,0.0,0.0,0.0,0.0,0.0,0.0,0.0,0.0,0.0,0.0,0,0,0,0.0,0.0,,,,,,,,,,,,,,,,,,,,-0.00228122971021,0.00630421703681,0.000487883895403,0.0,0,1,0,0.0,0,0,,,,,,,,,,,0.0,0.0,0.0,0.0,0.0,0.0,0.0,0.0,,,,-0.0201705116779,0.0458597913384,-1.85668468475e-05,0,0,0.0,0.0,0.300000011921,0,77,,,,,,,,,0,0.0,0.0,0.0,0.0,0,0.0,0,0.0,,,,,,,,,,,,,,,,11.6076192856,11.5988740921,-1.0,-1.0,,,,,,,,,,,,,,,,,,,,,,,,,,,,,,,,,,,,,,,,,,,,,,,,,,,,,,,,,,,,,,,,,,,,,,,,,,,,,,,,,,,,,,,,,,,,,,,,,,,,,,,2997127,PX4FMU_V1,251760679a4bed86fdb10746062fde2cc23e460f,test,305419904.0
0.00400677835569,-0.00921042542905,2.54242396355,-0.00233130343258,-0.00312009919435,-0.00382972788066,-0.0814053937793,-0.0553983598948,-9.69741725922,0.0,-0.0,2.54242396355,0.0,-0.0814053937793,-0.0553983598948,-9.69741725922,-0.00256723118946,-0.00325919850729,-0.00397231150419,-0.168096035719,-0.114478603005,0.427128195763,1017.75,-37.3914146423,25.9300003052,0.0,0.0,0.0,0.0,0.0,0.0,0.0,0.0,0.0,0.0,0.0,0.0,0.0,0,0,0,0.0,0.0,,,,,,,,,,,,,,,,,,,,-0.00230126269162,0.00639240490273,0.000571705459151,0.0,0,1,0,0.0,0,0,,,,,,,,,,,0.0,0.0,0.0,0.0,0.0,0.0,0.0,0.0,,,,-0.0200333241373,0.0460522472858,-1.83582305908e-05,-10,17,0.0926472395658,-0.153529688716,0.300000011921,67,77,,,,,,,,,0,0.0,0.0,0.0,0.0,0,0.0,0,0.0,,,,,,,,,,,,,,,,11.5908565521,11.5988664627,-1.0,-1.0,,,,,,,,,,,,,,,,,,,,,,,,,,,,,,,,,,,,,,,,,,,,,,,,,,,,,,,,,,,,,,,,,,,,,,,,,,,,,,,,,,,,,,,,,,,,,,,,,,,,,,,3017825,PX4FMU_V1,251760679a4bed86fdb10746062fde2cc23e460f,test,305419904.0
0.00396213168278,-0.00926090683788,2.5424156189,-0.00269308709539,-0.00396247347817,-0.0029923862312,-0.0637642592192,-0.0512970276177,-9.6959066391,0.0,-0.0,2.5424156189,0.0,-0.0637642592192,-0.0512970276177,-9.6959066391,-0.00264376518317,-0.00407609017566,-0.00279448670335,-0.169013425708,-0.113646365702,0.423567771912,1017.75,-37.3914146423,25.9300003052,0.0,0.0,0.0,0.0,0.0,0.0,0.0,0.0,0.0,0.0,0.0,0.0,0.0,0,0,0,0.0,0.0,,,,,,,,,,,,,,,,,,,,-0.00222521065734,0.00653472682461,0.000446095276857,0.0,0,1,0,0.0,0,0,,,,,,,,,,,0.0,0.0,0.0,0.0,0.0,0.0,0.0,0.0,,,,-0.0198100917041,0.0463046580553,-1.84178352356e-05,0,0,0.0,0.0,0.300000011921,0,77,,,,,,,,,0,0.0,0.0,0.0,0.0,0,0.0,0,0.0,,,,,,,,,,,,,,,,11.5992383957,11.5988664627,-1.0,-1.0,,,,,,,,,,,,,,,,,,,,,,,,,,,,,,,,,,,,,,,,,,,,,,,,,,,,,,,,,,,,,,,,,,,,,,,,,,,,,,,,,,,,,,,,,,,,,,,,,,,,,,,3039000,PX4FMU_V1,251760679a4bed86fdb10746062fde2cc23e460f,test,305419904.0
0.00391048565507,-0.00930473953485,2.54256629944,-0.0030600912869,-0.00374942645431,-0.00334351533093,-0.0542330369353,-0.0337693318725,-9.68026065826,0.0,-0.0,2.54256629944,0.0,-0.0542330369353,-0.0337693318725,-9.68026065826,-0.00282816775143,-0.00394740793854,-0.00373181514442,-0.16717864573,-0.1128141433,0.427128195763,1017.77996826,-37.6402397156,25.9300003052,0.0,0.0,0.0,0.0,0.0,0.0,0.0,0.0,0.0,0.0,0.0,0.0,0.0,0,0,0,0.0,0.0,,,,,,,,,,,,,,,,,,,,-0.00214393017814,0.00653551984578,0.000498818291817,0.0,0,1,0,0.0,0,0,,,,,,,,,,,0.0,0.0,0.0,0.0,0.0,0.0,0.0,0.0,,,,-0.0195518620312,0.0465238057077,-1.80602073669e-05,0,0,0.0,0.0,0.300000011921,0,77,,,,,,,,,0,0.0,0.0,0.0,0.0,0,0.0,0,0.0,,,,,,,,,,,,,,,,11.5992383957,11.5988664627,-1.0,-1.0,,,,,,,,,,,,,,,,,,,,,,,,,,,,,,,,,,,,,,,,,,,,,,,,,,,,,,,,,,,,,,,,,,,,,,,,,,,,,,,,,,,,,,,,,,,,,,,,,,,,,,,3061362,PX4FMU_V1,251760679a4bed86fdb10746062fde2cc23e460f,test,305419904.0
0.00385832460597,-0.00936166569591,2.54282236099,-0.00296913948841,-0.00434471154585,-0.00349265662953,-0.0761030167341,-0.0488430559635,-9.67216110229,0.0,-0.0,2.54282236099,0.0,-0.0761030167341,-0.0488430559635,-9.67216110229,-0.00282053626142,-0.00460834242404,-0.00304361642338,-0.170848190784,-0.111149668694,0.424457877874,1017.72998047,-37.2255249023,25.9300003052,0.0,0.0,0.0,0.0,0.0,0.0,0.0,0.0,0.0,0.0,0.0,0.0,0.0,0,0,0,0.0,0.0,,,,,,,,,,,,,,,,,,,,-0.00212184875272,0.00664990907535,0.000521180569194,0.0,0,1,0,0.0,0,0,,,,,,,,,,,0.0,0.0,0.0,0.0,0.0,0.0,0.0,0.0,,,,-0.0192910544574,0.0468084365129,-1.81198120117e-05,0,0,0.0,0.0,0.300000011921,0,77,,,,,,,,,0,0.0,0.0,0.0,0.0,0,0.0,0,0.0,,,,,,,,,,,,,,,,11.5908565521,11.5988588333,-1.0,-1.0,,,,,,,,,,,,,,,,,,,,,,,,,,,,,,,,,,,,,,,,,,,,,,,,,,,,,,,,,,,,,,,,,,,,,,,,,,,,,,,,,,,,,,,,,,,,,,,,,,,,,,,3082141,PX4FMU_V1,251760679a4bed86fdb10746062fde2cc23e460f,test,305419904.0
0.00381593429483,-0.00941730197519,2.54284334183,-0.0030140937306,-0.00381229678169,-0.0033955052495,-0.0705950781703,-0.0475194081664,-9.70928859711,0.0,-0.0,2.54284334183,0.0,-0.0705950781703,-0.0475194081664,-9.70928859711,-0.00326005415991,-0.00299170939252,-0.00338335265405,-0.168096035719,-0.116975307465,0.423567771912,1017.77996826,-37.6402397156,25.9399986267,0.0,0.0,0.0,0.0,0.0,0.0,0.0,0.0,0.0,0.0,0.0,0.0,0.0,0,0,0,0.0,0.0,,,,,,,,,,,,,,,,,,,,-0.00208845175803,0.00661686062813,0.000506634649355,0.0,0,1,0,0.0,0,0,,,,,,,,,,,0.0,0.0,0.0,0.0,0.0,0.0,0.0,0.0,,,,-0.0190791077912,0.0470866300166,-1.79409980774e-05,0,0,0.0,0.0,0.300000011921,0,77,,,,,,,,,0,0.0,0.0,0.0,0.0,0,0.0,0,0.0,,,,,,,,,,,,,,,,11.5908565521,11.5988512039,-1.0,-1.0,,,,,,,,,,,,,,,,,,,,,,,,,,,,,,,,,,,,,,,,,,,,,,,,,,,,,,,,,,,,,,,,,,,,,,,,,,,,,,,,,,,,,,,,,,,,,,,,,,,,,,,3103509,PX4FMU_V1,251760679a4bed86fdb10746062fde2cc23e460f,test,305419904.0
0.00376660935581,-0.00948027800769,2.54224324226,-0.00321510061622,-0.0044093481265,-0.00397801818326,-0.0638902634382,-0.0536400899291,-9.68995285034,0.0,-0.0,2.54224324226,0.0,-0.0638902634382,-0.0536400899291,-9.68995285034,-0.00285541964695,-0.00450395792723,-0.00390592357144,-0.16717864573,-0.115310840309,0.4262380898,1017.73999023,-37.3084716797,25.9399986267,0.0,0.0,0.0,0.0,0.0,0.0,0.0,0.0,0.0,0.0,0.0,0.0,0.0,0,0,0,0.0,0.0,,,,,,,,,,,,,,,,,,,,-0.00203025923111,0.00673540914431,0.000594011624344,0.0,0,1,0,0.0,0,0,,,,,,,,,,,0.0,0.0,0.0,0.0,0.0,0.0,0.0,0.0,,,,-0.0188324805349,0.0474014952779,-1.79409980774e-05,-1,-4,0.012577845715,0.0409089103341,0.300000011921,0,77,,,,,,,,,0,0.0,0.0,0.0,0.0,0,0.0,0,0.0,,,,,,,,,,,,,,,,11.5992383957,11.5988512039,-1.0,-1.0,,,,,,,,,,,,,,,,,,,,,,,,,,,,,,,,,,,,,,,,,,,,,,,,,,,,,,,,,,,,,,,,,,,,,,,,,,,,,,,,,,,,,,,,,,,,,,,,,,,,,,,3125350,PX4FMU_V1,251760679a4bed86fdb10746062fde2cc23e460f,test,305419904.0
0.00375323276967,-0.00952899176627,2.54219770432,-0.0027290515136,-0.0036791653838,-0.00301773613319,-0.0785221606493,-0.0635688081384,-9.69313812256,0.0,-0.0,2.54219770432,0.0,-0.0785221606493,-0.0635688081384,-9.69313812256,-0.00310872634873,-0.00344501924701,-0.00257204798982,-0.165343880653,-0.1128141433,0.425347983837,1017.73999023,-37.3084716797,25.9399986267,0.0,0.0,0.0,0.0,0.0,0.0,0.0,0.0,0.0,0.0,0.0,0.0,0.0,0,0,0,0.0,0.0,,,,,,,,,,,,,,,,,,,,-0.00208475044928,0.00667214998975,0.000449991639471,0.0,0,1,0,0.0,0,0,,,,,,,,,,,0.0,0.0,0.0,0.0,0.0,0.0,0.0,0.0,,,,-0.0187655929476,0.0476450696588,-1.77919864655e-05,0,0,0.0,0.0,0.300000011921,0,77,,,,,,,,,0,0.0,0.0,0.0,0.0,0,0.0,0,0.0,,,,,,,,,,,,,,,,11.5657138824,11.5988178253,-1.0,-1.0,,,,,,,,,,,,,,,,,,,,,,,,,,,,,,,,,,,,,,,,,,,,,,,,,,,,,,,,,,,,,,,,,,,,,,,,,,,,,,,,,,,,,,,,,,,,,,,,,,,,,,,3146776,PX4FMU_V1,251760679a4bed86fdb10746062fde2cc23e460f,test,305419904.0
0.00370949856006,-0.00957651250064,2.5451669693,-0.00201451708563,-0.00401728972793,-0.00150609447155,-0.0772029981017,-0.0614187829196,-9.63125705719,0.0,-0.0,2.5451669693,0.0,-0.0772029981017,-0.0614187829196,-9.63125705719,-0.00165847828612,-0.0038656021934,-0.00345517601818,-0.170848190784,-0.0845181494951,0.41644692421,1017.75,-37.3914146423,25.9499988556,0.0,0.0,0.0,0.0,0.0,0.0,0.0,0.0,0.0,0.0,0.0,0.0,0.0,0,0,0,0.0,0.0,,,,,,,,,,,,,,,,,,,,-0.00214921217412,0.00674699340016,0.000223249851842,0.0,0,1,0,0.0,0,0,,,,,,,,,,,0.0,0.0,0.0,0.0,0.0,0.0,0.0,0.0,,,,-0.0185469202697,0.0478826612234,-1.77621823241e-05,0,0,0.0,0.0,0.300000011921,0,77,,,,,,,,,0,0.0,0.0,0.0,0.0,0,0.0,0,0.0,,,,,,,,,,,,,,,,11.5657138824,11.5987844467,-1.0,-1.0,,,,,,,,,,,,,,,,,,,,,,,,,,,,,,,,,,,,,,,,,,,,,,,,,,,,,,,,,,,,,,,,,,,,,,,,,,,,,,,,,,,,,,,,,,,,,,,,,,,,,,,3167964,PX4FMU_V1,251760679a4bed86fdb10746062fde2cc23e460f,test,305419904.0
0.00366053800099,-0.00961705576628,2.54297685623,-0.00372799579054,-0.00223288033158,-0.00775921531022,-0.00987528916448,-0.0290948767215,-9.65748786926,0.0,-0.0,2.54297685623,0.0,-0.00987528916448,-0.0290948767215,-9.65748786926,-0.00376747967675,-0.00203159404919,-0.00788696669042,-0.133235603571,-0.108652964234,0.434249043465,1017.75,-37.3914146423,25.9499988556,0.0,0.0,0.0,0.0,0.0,0.0,0.0,0.0,0.0,0.0,0.0,0.0,0.0,0,0,0,0.0,0.0,,,,,,,,,,,,,,,,,,,,-0.00189463689458,0.00654137507081,0.00116122246254,0.0,0,1,0,0.0,0,0,,,,,,,,,,,0.0,0.0,0.0,0.0,0.0,0.0,0.0,0.0,,,,-0.0183021258563,0.0480853915215,-1.77323818207e-05,0,0,0.0,0.0,0.300000011921,0,77,,,,,,,,,0,0.0,0.0,0.0,0.0,0,0.0,0,0.0,,,,,,,,,,,,,,,,11.5657138824,11.5987176895,-1.0,-1.0,,,,,,,,,,,,,,,,,,,,,,,,,,,,,,,,,,,,,,,,,,,,,,,,,,,,,,,,,,,,,,,,,,,,,,,,,,,,,,,,,,,,,,,,,,,,,,,,,,,,,,,3189640,PX4FMU_V1,251760679a4bed86fdb10746062fde2cc23e460f,test,305419904.0
0.00364589807577,-0.00962697714567,2.54226374626,-0.00115476921201,-0.00340638705529,-0.000460390700027,0.0155257163569,-0.0137822348624,-9.72410964966,0.0,-0.0,2.54226374626,0.0,0.0155257163569,-0.0137822348624,-9.72410964966,-1.9804952899e-05,-0.00410284986719,-0.00372072076425,-0.135987728834,-0.104491785169,0.431578755379,1017.77996826,-37.6402397156,25.9599990845,0.0,0.0,0.0,0.0,0.0,0.0,0.0,0.0,0.0,0.0,0.0,0.0,0.0,0,0,0,0.0,0.0,,,,,,,,,,,,,,,,,,,,-0.00221964088269,0.00670037977397,6.64255712763e-05,0.0,0,1,0,0.0,0,0,,,,,,,,,,,0.0,0.0,0.0,0.0,0.0,0.0,0.0,0.0,,,,-0.0182289313525,0.0481349974871,-1.75535678864e-05,0,0,0.0,0.0,0.300000011921,0,77,,,,,,,,,0,0.0,0.0,0.0,0.0,0,0.0,0,0.0,,,,,,,,,,,,,,,,11.5657138824,11.5986433029,-1.0,-1.0,,,,,,,,,,,,,,,,,,,,,,,,,,,,,,,,,,,,,,,,,,,,,,,,,,,,,,,,,,,,,,,,,,,,,,,,,,,,,,,,,,,,,,,,,,,,,,,,,,,,,,,3210289,PX4FMU_V1,251760679a4bed86fdb10746062fde2cc23e460f,test,305419904.0
0.00363465235569,-0.00967110786587,2.5431432724,-0.00257402122952,-0.00314538110979,-0.00618547108024,0.0268885232508,-0.00579446554184,-9.66768550873,0.0,-0.0,2.5431432724,0.0,0.0268885232508,-0.00579446554184,-9.66768550873,-0.00332949473523,-0.0030925963074,-0.0137583212927,-0.140574634075,-0.100330613554,0.428908407688,1017.75,-37.3914146423,25.9599990845,0.0,0.0,0.0,0.0,0.0,0.0,0.0,0.0,0.0,0.0,0.0,0.0,0.0,0,0,0,0.0,0.0,,,,,,,,,,,,,,,,,,,,-0.00202782754786,0.00669513316825,0.000925174274016,0.0,0,1,0,0.0,0,0,,,,,,,,,,,0.0,0.0,0.0,0.0,0.0,0.0,0.0,0.0,,,,-0.0181726943702,0.0483556427062,-1.76429730345e-05,0,0,0.0,0.0,0.300000011921,0,77,,,,,,,,,0,0.0,0.0,0.0,0.0,0,0.0,0,0.0,,,,,,,,,,,,,,,,11.5573329926,11.5985689163,-1.0,-1.0,,,,,,,,,,,,,,,,,,,,,,,,,,,,,,,,,,,,,,,,,,,,,,,,,,,,,,,,,,,,,,,,,,,,,,,,,,,,,,,,,,,,,,,,,,,,,,,,,,,,,,,3231554,PX4FMU_V1,251760679a4bed86fdb10746062fde2cc23e460f,test,305419904.0
0.00358259282075,-0.00970075838268,2.53943419456,-0.00194655929226,-0.00452601350844,-0.00432056281716,-0.0398237332702,-0.0741026774049,-9.67095756531,0.0,-0.0,2.53943419456,0.0,-0.0398237332702,-0.0741026774049,-9.67095756531,-0.000977892312221,-0.00644103810191,-0.00600081309676,-0.128648683429,-0.121968716383,0.430688619614,1017.73999023,-37.3084716797,25.9599990845,0.0,0.0,0.0,0.0,0.0,0.0,0.0,0.0,0.0,0.0,0.0,0.0,0.0,0,0,0,0.0,0.0,,,,,,,,,,,,,,,,,,,,-0.00207555899397,0.00689388625324,0.000645473774057,0.0,0,1,0,0.0,0,0,,,,,,,,,,,0.0,0.0,0.0,0.0,0.0,0.0,0.0,0.0,,,,-0.0179123990238,0.048503883183,-1.74045562744e-05,0,0,0.0,0.0,0.300000011921,0,77,,,,,,,,,0,0.0,0.0,0.0,0.0,0,0.0,0,0.0,,,,,,,,,,,,,,,,11.5908565521,11.5985202789,-1.0,-1.0,,,,,,,,,,,,,,,,,,,,,,,,,,,,,,,,,,,,,,,,,,,,,,,,,,,,,,,,,,,,,,,,,,,,,,,,,,,,,,,,,,,,,,,,,,,,,,,,,,,,,,,3253660,PX4FMU_V1,251760679a4bed86fdb10746062fde2cc23e460f,test,305419904.0
0.0035829921253,-0.00977511610836,2.53858780861,-0.00331767462194,-0.00359897594899,-0.00445659551769,-0.052113879472,-0.0922021865845,-9.66738510132,0.0,-0.0,2.53858780861,0.0,-0.052113879472,-0.0922021865845,-9.66738510132,-0.00435041822493,-0.00307481898926,-0.0102198524401,-0.143326759338,-0.0961694419384,0.4262380898,1017.7699585,-37.5573005676,25.9599990845,0.0,0.0,0.0,0.0,0.0,0.0,0.0,0.0,0.0,0.0,0.0,0.0,0.0,0,0,0,0.0,0.0,,,,,,,,,,,,,,,,,,,,-0.00189757300541,0.00682170456275,0.000665874220431,0.0,0,1,0,0.0,0,0,,,,,,,,,,,0.0,0.0,0.0,0.0,0.0,0.0,0.0,0.0,,,,-0.0179143901914,0.0488756746054,-1.74343585968e-05,0,0,0.0,0.0,0.300000011921,0,77,,,,,,,,,0,0.0,0.0,0.0,0.0,0,0.0,0,0.0,,,,,,,,,,,,,,,,11.5992383957,11.5985212326,-1.0,-1.0,,,,,,,,,,,,,,,,,,,,,,,,,,,,,,,,,,,,,,,,,,,,,,,,,,,,,,,,,,,,,,,,,,,,,,,,,,,,,,,,,,,,,,,,,,,,,,,,,,,,,,,3274734,PX4FMU_V1,251760679a4bed86fdb10746062fde2cc23e460f,test,305419904.0
0.00354584306479,-0.00981777254492,2.5396399498,-0.00064558070153,-0.00379894673824,-0.00215519824997,-0.092303276062,-0.0855907574296,-9.68452644348,0.0,-0.0,2.5396399498,0.0,-0.092303276062,-0.0855907574296,-9.68452644348,0.00136634381488,-0.00457209069282,-0.00751723069698,-0.157087489963,-0.0886793285608,0.422677665949,1017.7199707,-37.1425819397,25.9599990845,0.0,0.0,0.0,0.0,0.0,0.0,0.0,0.0,0.0,0.0,0.0,0.0,0.0,0,0,0,0.0,0.0,,,,,,,,,,,,,,,,,,,,-0.00222079874948,0.00687542790547,0.000320660124999,0.0,0,1,0,0.0,0,0,,,,,,,,,,,0.0,0.0,0.0,0.0,0.0,0.0,0.0,0.0,,,,-0.0177286472172,0.0490889623761,-1.74641609192e-05,0,0,0.0,0.0,0.300000011921,0,77,,,,,,,,,0,0.0,0.0,0.0,0.0,0,0.0,0,0.0,,,,,,,,,,,,,,,,11.5992383957,11.5985145569,-1.0,-1.0,,,,,,,,,,,,,,,,,,,,,,,,,,,,,,,,,,,,,,,,,,,,,,,,,,,,,,,,,,,,,,,,,,,,,,,,,,,,,,,,,,,,,,,,,,,,,,,,,,,,,,,3295955,PX4FMU_V1,251760679a4bed86fdb10746062fde2cc23e460f,test,305419904.0
0.00347953964956,-0.00987798627466,2.5417330265,-0.00306266732514,-0.00379396020435,-0.00219087325968,-0.00800041854382,-0.0354622192681,-9.67744922638,0.0,-0.0,2.5417330265,0.0,-0.00800041854382,-0.0354622192681,-9.67744922638,-0.00195290753618,-0.00330819236115,-0.00104392878711,-0.158004850149,-0.0895115584135,0.422677665949,1017.7699585,-37.5573005676,25.9699993134,0.0,0.0,0.0,0.0,0.0,0.0,0.0,0.0,0.0,0.0,0.0,0.0,0.0,0,0,0,0.0,0.0,,,,,,,,,,,,,,,,,,,,-0.00186348077841,0.00691391853616,0.000326056091581,0.0,0,1,0,0.0,0,0,,,,,,,,,,,0.0,0.0,0.0,0.0,0.0,0.0,0.0,0.0,,,,-0.0173971354961,0.0493900328875,-1.71661376953e-05,0,0,0.0,0.0,0.300000011921,0,77,,,,,,,,,0,0.0,0.0,0.0,0.0,0,0.0,0,0.0,,,,,,,,,,,,,,,,11.5908565521,11.5985078812,-1.0,-1.0,,,,,,,,,,,,,,,,,,,,,,,,,,,,,,,,,,,,,,,,,,,,,,,,,,,,,,,,,,,,,,,,,,,,,,,,,,,,,,,,,,,,,,,,,,,,,,,,,,,,,,,3317802,PX4FMU_V1,251760679a4bed86fdb10746062fde2cc23e460f,test,305419904.0
0.00347118778154,-0.00995099358261,2.54275560379,-0.00289073307067,-0.00451239710674,-0.00408345507458,-0.0811415538192,-0.0586926452816,-9.68182945251,0.0,-0.0,2.54275560379,0.0,-0.0811415538192,-0.0586926452816,-9.68182945251,-0.00318114319816,-0.00408677943051,-0.00387395382859,-0.146078914404,-0.0945049747825,0.429798513651,1017.73999023,-37.3084716797,25.9699993134,0.0,0.0,0.0,0.0,0.0,0.0,0.0,0.0,0.0,0.0,0.0,0.0,0.0,0,0,0,0.0,0.0,,,,,,,,,,,,,,,,,,,,-0.00188040267676,0.00705477036536,0.000609934446402,0.0,0,1,0,0.0,0,0,,,,,,,,,,,0.0,0.0,0.0,0.0,0.0,0.0,0.0,0.0,,,,-0.017355369404,0.0497550703585,-1.72257423401e-05,0,0,0.0,0.0,0.300000011921,0,77,,,,,,,,,0,0.0,0.0,0.0,0.0,0,0.0,0,0.0,,,,,,,,,,,,,,,,11.6076192856,11.5985097885,-1.0,-1.0,,,,,,,,,,,,,,,,,,,,,,,,,,,,,,,,,,,,,,,,,,,,,,,,,,,,,,,,,,,,,,,,,,,,,,,,,,,,,,,,,,,,,,,,,,,,,,,,,,,,,,,3338732,PX4FMU_V1,251760679a4bed86fdb10746062fde2cc23e460f,test,305419904.0
0.00343438237906,-0.00999334082007,2.54239845276,-0.00275759259239,-0.00309770414606,-0.0038142837584,-0.106931291521,-0.0764723420143,-9.6530008316,0.0,-0.0,2.54239845276,0.0,-0.106931291521,-0.0764723420143,-9.6530008316,-0.00129404920153,-0.00373178580776,-0.00515873264521,-0.140574634075,-0.0970016717911,0.429798513651,1017.73999023,-37.3084716797,25.9699993134,0.0,0.0,0.0,0.0,0.0,0.0,0.0,0.0,0.0,0.0,0.0,0.0,0.0,0,0,0,0.0,0.0,,,,,,,,,,,,,,,,,,,,-0.00187378667761,0.00689838407561,0.000569572148379,0.0,0,1,0,0.0,0,0,,,,,,,,,,,0.0,0.0,0.0,0.0,0.0,0.0,0.0,0.0,,,,-0.0171713363379,0.049966789782,-1.71363353729e-05,0,0,0.0,0.0,0.300000011921,0,77,,,,,,,,,0,0.0,0.0,0.0,0.0,0,0.0,0,0.0,,,,,,,,,,,,,,,,11.5908565521,11.5985021591,-1.0,-1.0,,,,,,,,,,,,,,,,,,,,,,,,,,,,,,,,,,,,,,,,,,,,,,,,,,,,,,,,,,,,,,,,,,,,,,,,,,,,,,,,,,,,,,,,,,,,,,,,,,,,,,,3359596,PX4FMU_V1,251760679a4bed86fdb10746062fde2cc23e460f,test,305419904.0
0.00344783812761,-0.0100524304435,2.54251050949,-0.0025417432189,-0.00376906152815,-0.00628251675516,-0.0851436182857,-0.180678620934,-9.68970108032,0.0,-0.0,2.54251050949,0.0,-0.0851436182857,-0.180678620934,-9.68970108032,-0.00318119395524,-0.000735703739338,-0.00175563758239,-0.166261270642,-0.109485201538,0.423567771912,1017.75,-37.3914146423,25.9699993134,0.0,0.0,0.0,0.0,0.0,0.0,0.0,0.0,0.0,0.0,0.0,0.0,0.0,0,0,0,0.0,0.0,,,,,,,,,,,,,,,,,,,,-0.00191059208009,0.00702406838536,0.000939771358389,0.0,0,1,0,0.0,0,0,,,,,,,,,,,0.0,0.0,0.0,0.0,0.0,0.0,0.0,0.0,,,,-0.0172386057675,0.050262235105,-1.7374752133e-05,0,0,0.0,0.0,0.300000011921,0,77,,,,,,,,,0,0.0,0.0,0.0,0.0,0,0.0,0,0.0,,,,,,,,,,,,,,,,11.5573329926,11.5984287262,-1.0,-1.0,,,,,,,,,,,,,,,,,,,,,,,,,,,,,,,,,,,,,,,,,,,,,,,,,,,,,,,,,,,,,,,,,,,,,,,,,,,,,,,,,,,,,,,,,,,,,,,,,,,,,,,3382153,PX4FMU_V1,251760679a4bed86fdb10746062fde2cc23e460f,test,305419904.0
0.00338470796123,-0.0100233023986,2.54239940643,-0.00218320684507,-0.00366476573981,-0.00193641753867,-0.0694539770484,-0.0262264516205,-9.69512462616,0.0,-0.0,2.54239940643,0.0,-0.0694539770484,-0.0262264516205,-9.69512462616,-0.000366077583749,-0.00763746537268,-0.0112668387592,-0.164426535368,-0.114478603005,0.425347983837,1017.7199707,-37.1425819397,25.9699993134,0.0,0.0,0.0,0.0,0.0,0.0,0.0,0.0,0.0,0.0,0.0,0.0,0.0,0,0,0,0.0,0.0,,,,,,,,,,,,,,,,,,,,-0.00191616965458,0.00699157826602,0.000287932431092,0.0,0,1,0,0.0,0,0,,,,,,,,,,,0.0,0.0,0.0,0.0,0.0,0.0,0.0,0.0,,,,-0.0169229730964,0.0501166060567,-1.68681126524e-05,3,-20,-0.0344520621002,0.184888571501,0.300000011921,0,77,,,,,,,,,0,0.0,0.0,0.0,0.0,0,0.0,0,0.0,,,,,,,,,,,,,,,,11.5573329926,11.5983467102,-1.0,-1.0,,,,,,,,,,,,,,,,,,,,,,,,,,,,,,,,,,,,,,,,,,,,,,,,,,,,,,,,,,,,,,,,,,,,,,,,,,,,,,,,,,,,,,,,,,,,,,,,,,,,,,,3402921,PX4FMU_V1,251760679a4bed86fdb10746062fde2cc23e460f,test,305419904.0
0.00338335940614,-0.0101045547053,2.54173922539,-0.00316059170291,-0.00455943588167,-0.00162052595988,-0.118220001459,-0.0222004465759,-9.67895126343,0.0,-0.0,2.54173922539,0.0,-0.118220001459,-0.0222004465759,-9.67895126343,-0.00407257955521,-0.00158362556249,0.0053133899346,-0.16717864573,-0.118639782071,0.423567771912,1017.77996826,-37.6402397156,25.9799995422,0.0,0.0,0.0,0.0,0.0,0.0,0.0,0.0,0.0,0.0,0.0,0.0,0.0,0,0,0,0.0,0.0,,,,,,,,,,,,,,,,,,,,-0.00178823142778,0.00716069759801,0.000240508452407,0.0,0,1,0,0.0,0,0,,,,,,,,,,,0.0,0.0,0.0,0.0,0.0,0.0,0.0,0.0,,,,-0.0169162191451,0.0505228564143,-1.71363353729e-05,0,0,0.0,0.0,0.300000011921,0,77,,,,,,,,,0,0.0,0.0,0.0,0.0,0,0.0,0,0.0,,,,,,,,,,,,,,,,11.5489521027,11.5982561111,-1.0,-1.0,,,,,,,,,,,,,,,,,,,,,,,,,,,,,,,,,,,,,,,,,,,,,,,,,,,,,,,,,,,,,,,,,,,,,,,,,,,,,,,,,,,,,,,,,,,,,,,,,,,,,,,3423999,PX4FMU_V1,251760679a4bed86fdb10746062fde2cc23e460f,test,305419904.0
0.00333995861001,-0.0101259658113,2.5415763855,-0.00254563102499,-0.00772762112319,-0.0124460989609,-0.0840668007731,-0.0270271524787,-9.6792755127,0.0,-0.0,2.5415763855,0.0,-0.0840668007731,-0.0270271524787,-9.6792755127,-7.21634351066e-05,-0.0101057933643,-0.00417160056531,-0.134152948856,-0.0953372046351,0.428018301725,1017.73999023,-37.3084716797,25.9799995422,0.0,0.0,0.0,0.0,0.0,0.0,0.0,0.0,0.0,0.0,0.0,0.0,0.0,0,0,0,0.0,0.0,,,,,,,,,,,,,,,,,,,,-0.00183996721171,0.00758648151532,0.00186438474339,0.0,0,1,0,0.0,0,0,,,,,,,,,,,0.0,0.0,0.0,0.0,0.0,0.0,0.0,0.0,,,,-0.0166992247105,0.0506299287081,-1.68681144714e-05,0,0,0.0,0.0,0.300000011921,0,77,,,,,,,,,0,0.0,0.0,0.0,0.0,0,0.0,0,0.0,,,,,,,,,,,,,,,,11.5657138824,11.5981826782,-1.0,-1.0,,,,,,,,,,,,,,,,,,,,,,,,,,,,,,,,,,,,,,,,,,,,,,,,,,,,,,,,,,,,,,,,,,,,,,,,,,,,,,,,,,,,,,,,,,,,,,,,,,,,,,,3445988,PX4FMU_V1,251760679a4bed86fdb10746062fde2cc23e460f,test,305419904.0
0.00335914385505,-0.0101892780513,2.54210758209,-0.00433800974861,-0.00025667087175,0.000180277042091,-0.150104403496,-0.167826265097,-9.67089748383,0.0,-0.0,2.54210758209,0.0,-0.150104403496,-0.167826265097,-9.67089748383,-0.0092762093991,0.00131992739625,-0.0100167766213,-0.161674380302,-0.108652964234,0.424457877874,1017.7699585,-37.5573005676,25.9899997711,0.0,0.0,0.0,0.0,0.0,0.0,0.0,0.0,0.0,0.0,0.0,0.0,0.0,0,0,0,0.0,0.0,,,,,,,,,,,,,,,,,,,,-0.00161942688283,0.00665641063824,-2.95985973935e-05,0.0,0,1,0,0.0,0,0,,,,,,,,,,,0.0,0.0,0.0,0.0,0.0,0.0,0.0,0.0,,,,-0.0167951397598,0.0509464889765,-1.70469284058e-05,0,0,0.0,0.0,0.300000011921,0,77,,,,,,,,,0,0.0,0.0,0.0,0.0,0,0.0,0,0.0,,,,,,,,,,,,,,,,11.5657138824,11.5981502533,-1.0,-1.0,,,,,,,,,,,,,,,,,,,,,,,,,,,,,,,,,,,,,,,,,,,,,,,,,,,,,,,,,,,,,,,,,,,,,,,,,,,,,,,,,,,,,,,,,,,,,,,,,,,,,,,3466357,PX4FMU_V1,251760679a4bed86fdb10746062fde2cc23e460f,test,305419904.0
0.00325429183431,-0.0101877273992,2.54193925858,0.000742141914088,-0.0070301964879,-0.00760032050312,-0.0686657056212,-0.00832253601402,-9.70242118835,0.0,-0.0,2.54193925858,0.0,-0.0686657056212,-0.00832253601402,-9.70242118835,0.00655807927251,-0.00809471122921,-0.0120754288509,-0.166261270642,-0.120304241776,0.411106288433,1017.73999023,-37.3084716797,25.9899997711,0.0,0.0,0.0,0.0,0.0,0.0,0.0,0.0,0.0,0.0,0.0,0.0,0.0,0,0,0,0.0,0.0,,,,,,,,,,,,,,,,,,,,-0.00221169483848,0.00753595959395,0.00113756710198,0.0,0,1,0,0.0,0,0,,,,,,,,,,,0.0,0.0,0.0,0.0,0.0,0.0,0.0,0.0,,,,-0.0162708964199,0.0509387254715,-1.65402889252e-05,9,8,-0.0825000405312,-0.0805728584528,0.300000011921,71,77,,,,,,,,,0,0.0,0.0,0.0,0.0,0,0.0,0,0.0,,,,,,,,,,,,,,,,11.5908565521,11.5981349945,-1.0,-1.0,,,,,,,,,,,,,,,,,,,,,,,,,,,,,,,,,,,,,,,,,,,,,,,,,,,,,,,,,,,,,,,,,,,,,,,,,,,,,,,,,,,,,,,,,,,,,,,,,,,,,,,3487539,PX4FMU_V1,251760679a4bed86fdb10746062fde2cc23e460f,test,305419904.0
0.0033144550398,-0.0102502480149,2.54170203209,-0.00557922478765,-0.00205702078529,-0.00368083571084,-0.0258701629937,-0.0312959551811,-9.68242645264,0.0,-0.0,2.54170203209,0.0,-0.0258701629937,-0.0312959551811,-9.68242645264,-0.00963567942381,-0.00222292309627,-0.0117721725255,-0.170848190784,-0.118639782071,0.419117242098,1017.73999023,-37.3084716797,25.9899997711,0.0,0.0,0.0,0.0,0.0,0.0,0.0,0.0,0.0,0.0,0.0,0.0,0.0,0,0,0,0.0,0.0,,,,,,,,,,,,,,,,,,,,-0.00142902135849,0.00693008722737,0.000549586198758,0.0,0,1,0,0.0,0,0,,,,,,,,,,,0.0,0.0,0.0,0.0,0.0,0.0,0.0,0.0,,,,-0.0165716968477,0.0512513443828,-1.69277191162e-05,0,0,0.0,0.0,0.300000011921,0,77,,,,,,,,,0,0.0,0.0,0.0,0.0,0,0.0,0,0.0,,,,,,,,,,,,,,,,11.5992383957,11.5981283188,-1.0,-1.0,,,,,,,,,,,,,,,,,,,,,,,,,,,,,,,,,,,,,,,,,,,,,,,,,,,,,,,,,,,,,,,,,,,,,,,,,,,,,,,,,,,,,,,,,,,,,,,,,,,,,,,3508714,PX4FMU_V1,251760679a4bed86fdb10746062fde2cc23e460f,test,305419904.0
0.00327128055505,-0.0102867372334,2.54153180122,-0.000132742381538,-0.00506456196308,-0.00103430286981,-0.139565229416,-0.159212037921,-9.66815471649,0.0,-0.0,2.54153180122,0.0,-0.139565229416,-0.159212037921,-9.66815471649,-0.000717206276022,-0.00561561249197,-0.00211156951264,-0.169013425708,-0.117807544768,0.419117242098,1017.7699585,-37.5573005676,25.9899997711,0.0,0.0,0.0,0.0,0.0,0.0,0.0,0.0,0.0,0.0,0.0,0.0,0.0,0,0,0,0.0,0.0,,,,,,,,,,,,,,,,,,,,-0.00210900045931,0.00734478235245,0.000152610751684,0.0,0,1,0,0.0,0,0,,,,,,,,,,,0.0,0.0,0.0,0.0,0.0,0.0,0.0,0.0,,,,-0.0163558237255,0.0514337643981,-1.68979149748e-05,0,0,0.0,0.0,0.300000011921,0,77,,,,,,,,,0,0.0,0.0,0.0,0.0,0,0.0,0,0.0,,,,,,,,,,,,,,,,11.5908565521,11.5981216431,-1.0,-1.0,,,,,,,,,,,,,,,,,,,,,,,,,,,,,,,,,,,,,,,,,,,,,,,,,,,,,,,,,,,,,,,,,,,,,,,,,,,,,,,,,,,,,,,,,,,,,,,,,,,,,,,3530219,PX4FMU_V1,251760679a4bed86fdb10746062fde2cc23e460f,test,305419904.0
0.00320574594662,-0.0103141078725,2.54120516777,-0.00522248633206,-0.00284483516589,-0.00505868624896,-0.00469998642802,-0.0165702737868,-9.67993450165,0.0,-0.0,2.54120516777,0.0,-0.00469998642802,-0.0165702737868,-9.67993450165,-0.00563257699832,-0.00285417749546,-0.00250321580097,-0.16717864573,-0.118639782071,0.412886500359,1017.75994873,-37.474357605,25.9899997711,0.0,0.0,0.0,0.0,0.0,0.0,0.0,0.0,0.0,0.0,0.0,0.0,0.0,0,0,0,0.0,0.0,,,,,,,,,,,,,,,,,,,,-0.00140473805368,0.00707401009277,0.000756321940571,0.0,0,1,0,0.0,0,0,,,,,,,,,,,0.0,0.0,0.0,0.0,0.0,0.0,0.0,0.0,,,,-0.0160281639546,0.0515706278384,-1.65402907442e-05,0,0,0.0,0.0,0.300000011921,0,77,,,,,,,,,0,0.0,0.0,0.0,0.0,0,0.0,0,0.0,,,,,,,,,,,,,,,,11.5908565521,11.5981140137,-1.0,-1.0,,,,,,,,,,,,,,,,,,,,,,,,,,,,,,,,,,,,,,,,,,,,,,,,,,,,,,,,,,,,,,,,,,,,,,,,,,,,,,,,,,,,,,,,,,,,,,,,,,,,,,,3551070,PX4FMU_V1,251760679a4bed86fdb10746062fde2cc23e460f,test,305419904.0
0.0031813767273,-0.0103633804247,2.54048085213,-0.000944350729696,-0.00474670901895,-0.00454354658723,-0.100482061505,-0.0752718821168,-9.68816947937,0.0,-0.0,2.54048085213,0.0,-0.100482061505,-0.0752718821168,-9.68816947937,-0.000162862124853,-0.00491046207026,-0.00951819773763,-0.16717864573,-0.127794355154,0.413776606321,1017.78997803,-37.7231826782,25.9799995422,0.0,0.0,0.0,0.0,0.0,0.0,0.0,0.0,0.0,0.0,0.0,0.0,0.0,0,0,0,0.0,0.0,,,,,,,,,,,,,,,,,,,,-0.00194505485706,0.00735328160226,0.00067904649768,0.0,0,1,0,0.0,0,0,,,,,,,,,,,0.0,0.0,0.0,0.0,0.0,0.0,0.0,0.0,,,,-0.0159063115716,0.051816996187,-1.65700894286e-05,-11,28,0.100384965539,-0.259616315365,0.300000011921,0,77,,,,,,,,,0,0.0,0.0,0.0,0.0,0,0.0,0,0.0,,,,,,,,,,,,,,,,11.5908565521,11.598107338,-1.0,-1.0,,,,,,,,,,,,,,,,,,,,,,,,,,,,,,,,,,,,,,,,,,,,,,,,,,,,,,,,,,,,,,,,,,,,,,,,,,,,,,,,,,,,,,,,,,,,,,,,,,,,,,,3572336,PX4FMU_V1,251760679a4bed86fdb10746062fde2cc23e460f,test,305419904.0
0.00310543016531,-0.0103870509192,2.53998804092,-0.00426377821714,-0.00243424484506,-0.00249981787056,-0.0708706080914,-0.0500386618078,-9.66551971436,0.0,-0.0,2.53998804092,0.0,-0.0708706080914,-0.0500386618078,-9.66551971436,-0.00300543755293,-0.00333384121768,-0.0040969280526,-0.16717864573,-0.121968716383,0.429798513651,1017.72998047,-37.2255249023,25.9799995422,0.0,0.0,0.0,0.0,0.0,0.0,0.0,0.0,0.0,0.0,0.0,0.0,0.0,0,0,0,0.0,0.0,,,,,,,,,,,,,,,,,,,,-0.00146416563075,0.00706804543734,0.000372563168639,0.0,0,1,0,0.0,0,0,,,,,,,,,,,0.0,0.0,0.0,0.0,0.0,0.0,0.0,0.0,,,,-0.0155265908688,0.0519353374839,-1.6063449948e-05,0,0,0.0,0.0,0.300000011921,0,77,,,,,,,,,0,0.0,0.0,0.0,0.0,0,0.0,0,0.0,,,,,,,,,,,,,,,,11.5657138824,11.5980424881,-1.0,-1.0,,,,,,,,,,,,,,,,,,,,,,,,,,,,,,,,,,,,,,,,,,,,,,,,,,,,,,,,,,,,,,,,,,,,,,,,,,,,,,,,,,,,,,,,,,,,,,,,,,,,,,,3594209,PX4FMU_V1,251760679a4bed86fdb10746062fde2cc23e460f,test,305419904.0
0.00309443753213,-0.0104343714193,2.5376701355,-0.00219637225382,-0.00405762949958,-0.00292154308408,-0.0953884720802,-0.0780421420932,-9.71150684357,0.0,-0.0,2.5376701355,0.0,-0.0953884720802,-0.0780421420932,-9.71150684357,-0.0027863974683,-0.00337473070249,-0.00269972882234,-0.159839615226,-0.146103531122,0.417337030172,1017.79998779,-37.8061218262,26.0,0.0,0.0,0.0,0.0,0.0,0.0,0.0,0.0,0.0,0.0,0.0,0.0,0.0,0,0,0,0.0,0.0,,,,,,,,,,,,,,,,,,,,-0.00172578275669,0.00730984471738,0.000435804075096,0.0,0,1,0,0.0,0,0,,,,,,,,,,,0.0,0.0,0.0,0.0,0.0,0.0,0.0,0.0,,,,-0.0154716251418,0.0521719455719,-1.61826628755e-05,0,0,0.0,0.0,0.300000011921,0,77,,,,,,,,,0,0.0,0.0,0.0,0.0,0,0.0,0,0.0,,,,,,,,,,,,,,,,11.5573329926,11.5979690552,-1.0,-1.0,,,,,,,,,,,,,,,,,,,,,,,,,,,,,,,,,,,,,,,,,,,,,,,,,,,,,,,,,,,,,,,,,,,,,,,,,,,,,,,,,,,,,,,,,,,,,,,,,,,,,,,3614835,PX4FMU_V1,251760679a4bed86fdb10746062fde2cc23e460f,test,305419904.0
0.00306307687424,-0.0104582384229,2.53884768486,-0.00277589750476,-0.00359978433698,-0.0112810526043,-0.0275482609868,-0.0534072518349,-9.67838573456,0.0,-0.0,2.53884768486,0.0,-0.0275482609868,-0.0534072518349,-9.67838573456,-0.00217845896259,-0.00504020322114,-0.0122072966769,-0.195617452264,-0.1128141433,0.427128195763,1017.7699585,-37.5573005676,26.0,0.0,0.0,0.0,0.0,0.0,0.0,0.0,0.0,0.0,0.0,0.0,0.0,0.0,0,0,0,0.0,0.0,,,,,,,,,,,,,,,,,,,,-0.00163006072398,0.00726583693177,0.0016897484893,0.0,0,1,0,0.0,0,0,,,,,,,,,,,0.0,0.0,0.0,0.0,0.0,0.0,0.0,0.0,,,,-0.0153148267418,0.0522912703454,-1.6063451767e-05,0,0,0.0,0.0,0.300000011921,0,77,,,,,,,,,0,0.0,0.0,0.0,0.0,0,0.0,0,0.0,,,,,,,,,,,,,,,,11.5657138824,11.5979366302,-1.0,-1.0,,,,,,,,,,,,,,,,,,,,,,,,,,,,,,,,,,,,,,,,,,,,,,,,,,,,,,,,,,,,,,,,,,,,,,,,,,,,,,,,,,,,,,,,,,,,,,,,,,,,,,,3635745,PX4FMU_V1,251760679a4bed86fdb10746062fde2cc23e460f,test,305419904.0
0.00303617911413,-0.0104944538325,2.54055428505,-0.00248653395101,-0.00297464686446,3.52542811015e-05,-0.083589926362,-0.0599676221609,-9.67410850525,0.0,-0.0,2.54055428505,0.0,-0.083589926362,-0.0599676221609,-9.67410850525,-0.00246291514486,-0.0024498119019,-0.00682964967564,-0.191030547023,-0.120304241776,0.424457877874,1017.72998047,-37.2255249023,26.0,0.0,0.0,0.0,0.0,0.0,0.0,0.0,0.0,0.0,0.0,0.0,0.0,0.0,0,0,0,0.0,0.0,,,,,,,,,,,,,,,,,,,,-0.00165019463748,0.00720810750499,-7.68871996115e-06,0.0,0,1,0,0.931929886341,0,0,,,,,,,,,,,0.0,0.0,0.0,0.0,0.0,0.0,0.0,0.0,,,,-0.0151803391054,0.0524723343551,-1.60038489412e-05,0,0,0.0,0.0,0.300000011921,0,77,,,,,,,,,0,0.0,0.0,0.0,0.0,0,0.0,0,0.0,,,,,,,,,,,,,,,,11.5573329926,11.5978546143,-1.0,-1.0,,,,,,,,,,,,,,,,,,,,,,,,,,,,,,,,,,,,,,,,,,,,,,,,,,,,,,,,,,,,,,,,,,,,,,,,,,,,,,,,,,,,,,,,,,,,,,,,,,,,,,,3657104,PX4FMU_V1,251760679a4bed86fdb10746062fde2cc23e460f,test,305419904.0
0.00298351119272,-0.0105182100087,2.53969025612,-0.00244425819255,-0.00375318550505,-0.00110733194742,-0.0496771782637,-0.0218327734619,-9.69164562225,0.0,-0.0,2.53969025612,0.0,-0.0496771782637,-0.0218327734619,-9.69164562225,-0.000930263893679,-0.00440417043865,-0.00499245058745,-0.193782687187,-0.144439056516,0.420007348061,1017.75994873,-37.474357605,26.0,0.0,0.0,0.0,0.0,0.0,0.0,0.0,0.0,0.0,0.0,0.0,0.0,0.0,0,0,0,0.0,0.0,,,,,,,,,,,,,,,,,,,,-0.00162145739887,0.00732476077974,0.000163757329574,0.0,0,1,0,0.931929886341,0,0,,,,,,,,,,,0.0,0.0,0.0,0.0,0.0,0.0,0.0,0.0,,,,-0.0149170076475,0.0525911301374,-1.56164169312e-05,-9,-11,0.0843753293157,0.0996811017394,0.300000011921,0,77,,,,,,,,,0,0.0,0.0,0.0,0.0,0,0.0,0,0.0,,,,,,,,,,,,,,,,11.5573329926,11.5977745056,-1.0,-1.0,,,,,,,,,,,,,,,,,,,,,,,,,,,,,,,,,,,,,,,,,,,,,,,,,,,,,,,,,,,,,,,,,,,,,,,,,,,,,,,,,,,,,,,,,,,,,,,,,,,,,,,3679160,PX4FMU_V1,251760679a4bed86fdb10746062fde2cc23e460f,test,305419904.0
0.00298938062042,-0.0105617661029,2.54128503799,-0.00285348342732,-0.00432533863932,-0.00428870692849,-0.0171199887991,-0.0304013341665,-9.70654773712,0.0,-0.0,2.54128503799,0.0,-0.0171199887991,-0.0304013341665,-9.70654773712,-0.00385994859971,-0.00427336059511,-0.000417197064962,-0.192865312099,-0.117807544768,0.423567771912,1017.73999023,-37.3084716797,26.0,0.0,0.0,0.0,0.0,0.0,0.0,0.0,0.0,0.0,0.0,0.0,0.0,0.0,0,0,0,0.0,0.0,,,,,,,,,,,,,,,,,,,,-0.00157207227312,0.00742745213211,0.000640950165689,0.0,0,1,0,0.931929886341,0,0,,,,,,,,,,,0.0,0.0,0.0,0.0,0.0,0.0,0.0,0.0,,,,-0.0149463480338,0.0528089106083,-1.57058257173e-05,-1,-19,0.0139784347266,0.172050088644,0.300000011921,0,77,,,,,,,,,0,0.0,0.0,0.0,0.0,0,0.0,0,0.0,,,,,,,,,,,,,,,,11.5992383957,11.5977363586,-1.0,-1.0,,,,,,,,,,,,,,,,,,,,,,,,,,,,,,,,,,,,,,,,,,,,,,,,,,,,,,,,,,,,,,,,,,,,,,,,,,,,,,,,,,,,,,,,,,,,,,,,,,,,,,,3700427,PX4FMU_V1,251760679a4bed86fdb10746062fde2cc23e460f,test,305419904.0
0.00295728095807,-0.0106325056404,2.54328608513,-0.00266362726688,-0.00442532449961,-0.00642105843872,-0.0962711051106,-0.0588921867311,-9.68198776245,0.0,-0.0,2.54328608513,0.0,-0.0962711051106,-0.0588921867311,-9.68198776245,-0.00284977117553,-0.00548263592646,-0.00786589458585,-0.192865312099,-0.111149668694,0.422677665949,1017.77996826,-37.6402397156,26.0100002289,0.0,0.0,0.0,0.0,0.0,0.0,0.0,0.0,0.0,0.0,0.0,0.0,0.0,0,0,0,0.0,0.0,,,,,,,,,,,,,,,,,,,,-0.00157588848379,0.00748643185943,0.000960807374213,0.0,0,1,0,0.931929886341,0,0,,,,,,,,,,,0.0,0.0,0.0,0.0,0.0,0.0,0.0,0.0,,,,-0.0147858466953,0.0531626157463,-1.56760233949e-05,0,0,0.0,0.0,0.300000011921,0,77,,,,,,,,,0,0.0,0.0,0.0,0.0,0,0.0,0,0.0,,,,,,,,,,,,,,,,11.5908565521,11.5977230072,-1.0,-1.0,,,,,,,,,,,,,,,,,,,,,,,,,,,,,,,,,,,,,,,,,,,,,,,,,,,,,,,,,,,,,,,,,,,,,,,,,,,,,,,,,,,,,,,,,,,,,,,,,,,,,,,3722732,PX4FMU_V1,251760679a4bed86fdb10746062fde2cc23e460f,test,305419904.0
0.00292278989218,-0.0106734074652,2.54410004616,-0.00219939206727,-0.00313058728352,-0.00314122368582,-0.104214586318,-0.0823977440596,-9.66166210175,0.0,-0.0,2.54410004616,0.0,-0.104214586318,-0.0823977440596,-9.66166210175,-0.00213382998481,-0.00280439271592,-0.00536573771387,-0.193782687187,-0.115310840309,0.423567771912,1017.73999023,-37.3084716797,26.0100002289,0.0,0.0,0.0,0.0,0.0,0.0,0.0,0.0,0.0,0.0,0.0,0.0,0.0,0,0,0,0.0,0.0,,,,,,,,,,,,,,,,,,,,-0.0016138200881,0.00734469946474,0.000468836631626,0.0,0,1,0,0.931929886341,0,0,,,,,,,,,,,0.0,0.0,0.0,0.0,0.0,0.0,0.0,0.0,,,,-0.0146133927628,0.053367100656,-1.56462174346e-05,0,0,0.0,0.0,0.300000011921,0,77,,,,,,,,,0,0.0,0.0,0.0,0.0,0,0.0,0,0.0,,,,,,,,,,,,,,,,11.5824756622,11.5977077484,-1.0,-1.0,,,,,,,,,,,,,,,,,,,,,,,,,,,,,,,,,,,,,,,,,,,,,,,,,,,,,,,,,,,,,,,,,,,,,,,,,,,,,,,,,,,,,,,,,,,,,,,,,,,,,,,3743589,PX4FMU_V1,251760679a4bed86fdb10746062fde2cc23e460f,test,305419904.0
0.00285935681313,-0.0106845600531,2.54588150978,-0.0032271319069,-0.00337508693337,-0.00275598955341,-0.0282037071884,-0.0241670627147,-9.68175792694,0.0,-0.0,2.54588150978,0.0,-0.0282037071884,-0.0241670627147,-9.68175792694,-0.00216341903433,-0.00245728809386,-0.00148744520266,-0.190113157034,-0.111149668694,0.424457877874,1017.79998779,-37.8061218262,26.0199985504,0.0,0.0,0.0,0.0,0.0,0.0,0.0,0.0,0.0,0.0,0.0,0.0,0.0,0,0,0,0.0,0.0,,,,,,,,,,,,,,,,,,,,-0.00143898441456,0.00738373491913,0.000411114102462,0.0,0,1,0,0.931929886341,0,0,,,,,,,,,,,0.0,0.0,0.0,0.0,0.0,0.0,0.0,0.0,,,,-0.0142962429672,0.0534228757024,-1.52289867401e-05,0,0,0.0,0.0,0.300000011921,0,77,,,,,,,,,0,0.0,0.0,0.0,0.0,0,0.0,0,0.0,,,,,,,,,,,,,,,,11.5992383957,11.59770298,-1.0,-1.0,,,,,,,,,,,,,,,,,,,,,,,,,,,,,,,,,,,,,,,,,,,,,,,,,,,,,,,,,,,,,,,,,,,,,,,,,,,,,,,,,,,,,,,,,,,,,,,,,,,,,,,3764843,PX4FMU_V1,251760679a4bed86fdb10746062fde2cc23e460f,test,305419904.0
0.00283307721838,-0.0107424687594,2.54771161079,-0.0031235658098,-0.00441009225324,-0.00388378789648,-0.057175770402,-0.00902388989925,-9.69796943665,0.0,-0.0,2.54771161079,0.0,-0.057175770402,-0.00902388989925,-9.69796943665,-0.00308031635359,-0.00448744278401,-0.00278983195312,-0.190113157034,-0.111149668694,0.422677665949,1017.7199707,-37.1425819397,26.0199985504,0.0,0.0,0.0,0.0,0.0,0.0,0.0,0.0,0.0,0.0,0.0,0.0,0.0,0,0,0,0.0,0.0,,,,,,,,,,,,,,,,,,,,-0.00143536541145,0.00755592435598,0.000580288353376,0.0,0,1,0,0.931929886341,0,0,,,,,,,,,,,0.0,0.0,0.0,0.0,0.0,0.0,0.0,0.0,,,,-0.0141648380086,0.0537124052644,-1.51991844177e-05,8,-15,-0.0796155184507,0.138461783528,0.300000011921,0,77,,,,,,,,,0,0.0,0.0,0.0,0.0,0,0.0,0,0.0,,,,,,,,,,,,,,,,11.5908565521,11.5976896286,-1.0,-1.0,,,,,,,,,,,,,,,,,,,,,,,,,,,,,,,,,,,,,,,,,,,,,,,,,,,,,,,,,,,,,,,,,,,,,,,,,,,,,,,,,,,,,,,,,,,,,,,,,,,,,,,3786869,PX4FMU_V1,251760679a4bed86fdb10746062fde2cc23e460f,test,305419904.0
0.0028317021206,-0.0107962917536,2.54950499535,-0.00282784900628,-0.00413327803835,-0.00329620670527,-0.0832767188549,-0.080521248281,-9.66889572144,0.0,-0.0,2.54950499535,0.0,-0.0832767188549,-0.080521248281,-9.66889572144,-0.00413132738322,-0.004668421112,-0.00433699088171,-0.18827842176,-0.111981905997,0.423567771912,1017.7199707,-37.1425819397,26.0199985504,0.0,0.0,0.0,0.0,0.0,0.0,0.0,0.0,0.0,0.0,0.0,0.0,0.0,0,0,0,0.0,0.0,,,,,,,,,,,,,,,,,,,,-0.00147291459143,0.00755492364988,0.000492128776386,0.0,0,1,0,0.931929886341,0,0,,,,,,,,,,,0.0,0.0,0.0,0.0,0.0,0.0,0.0,0.0,,,,-0.014157962054,0.0539815239608,-1.53481942107e-05,0,0,0.0,0.0,0.300000011921,0,77,,,,,,,,,0,0.0,0.0,0.0,0.0,0,0.0,0,0.0,,,,,,,,,,,,,,,,11.5992383957,11.5976934433,-1.0,-1.0,,,,,,,,,,,,,,,,,,,,,,,,,,,,,,,,,,,,,,,,,,,,,,,,,,,,,,,,,,,,,,,,,,,,,,,,,,,,,,,,,,,,,,,,,,,,,,,,,,,,,,,3808169,PX4FMU_V1,251760679a4bed86fdb10746062fde2cc23e460f,test,305419904.0
0.0027961791493,-0.010840007104,2.55161213875,-0.00273546692915,-0.00421103416011,-0.00183116702829,-0.0809187963605,-0.125930607319,-9.66936016083,0.0,-0.0,2.55161213875,0.0,-0.0809187963605,-0.125930607319,-9.66936016083,-0.00169560941868,-0.00418260367587,-0.00193180318456,-0.205708622932,-0.114478603005,0.435139149427,1017.78997803,-37.7231826782,26.0299987793,0.0,0.0,0.0,0.0,0.0,0.0,0.0,0.0,0.0,0.0,0.0,0.0,0.0,0,0,0,0.0,0.0,,,,,,,,,,,,,,,,,,,,-0.00146183394827,0.00759344734251,0.00027239965857,0.0,0,1,0,0.931929886341,0,0,,,,,,,,,,,0.0,0.0,0.0,0.0,0.0,0.0,0.0,0.0,,,,-0.0139803439379,0.0542001016438,-1.51693802763e-05,0,0,0.0,0.0,0.300000011921,0,77,,,,,,,,,0,0.0,0.0,0.0,0.0,0,0.0,0,0.0,,,,,,,,,,,,,,,,11.5657138824,11.5976610184,-1.0,-1.0,,,,,,,,,,,,,,,,,,,,,,,,,,,,,,,,,,,,,,,,,,,,,,,,,,,,,,,,,,,,,,,,,,,,,,,,,,,,,,,,,,,,,,,,,,,,,,,,,,,,,,,3829389,PX4FMU_V1,251760679a4bed86fdb10746062fde2cc23e460f,test,305419904.0
0.00276415701956,-0.0108693586662,2.55275177956,-0.0030391481705,-0.00297246035188,-0.00365453655832,-0.0581631027162,-0.0335950888693,-9.69929409027,0.0,-0.0,2.55275177956,0.0,-0.0581631027162,-0.0335950888693,-9.69929409027,-0.00221401872113,-0.00342889036983,0.000114674810902,-0.198369577527,-0.12113647908,0.441369891167,1017.77996826,-37.6402397156,26.0299987793,0.0,0.0,0.0,0.0,0.0,0.0,0.0,0.0,0.0,0.0,0.0,0.0,0.0,0,0,0,0.0,0.0,,,,,,,,,,,,,,,,,,,,-0.0014015417546,0.00745151005685,0.000545927439816,0.0,0,1,0,0.931731522083,0,0,,,,,,,,,,,0.0,0.0,0.0,0.0,0.0,0.0,0.0,0.0,,,,-0.0138202384114,0.0543468482792,-1.50203668454e-05,-11,-3,0.106363520026,0.0327272415161,0.300000011921,0,77,,,,,,,,,0,0.0,0.0,0.0,0.0,0,0.0,0,0.0,,,,,,,,,,,,,,,,11.5657138824,11.5975980759,-1.0,-1.0,,,,,,,,,,,,,,,,,,,,,,,,,,,,,,,,,,,,,,,,,,,,,,,,,,,,,,,,,,,,,,,,,,,,,,,,,,,,,,,,,,,,,,,,,,,,,,,,,,,,,,,3850961,PX4FMU_V1,251760679a4bed86fdb10746062fde2cc23e460f,test,305419904.0
0.00275461748242,-0.0109405582771,2.55381608009,-0.00193075486459,-0.00502584129572,-0.00129562767688,-0.0717077255249,-0.0184601638466,-9.68232917786,0.0,-0.0,2.55381608009,0.0,-0.0717077255249,-0.0184601638466,-9.68232917786,-0.00226759491488,-0.00599603960291,-0.00345733389258,-0.191947922111,-0.123633190989,0.431578755379,1017.78997803,-37.7231826782,26.0199985504,0.0,0.0,0.0,0.0,0.0,0.0,0.0,0.0,0.0,0.0,0.0,0.0,0.0,0,0,0,0.0,0.0,,,,,,,,,,,,,,,,,,,,-0.00153943151236,0.00776473106816,0.000192086634343,0.0,0,1,0,0.931731522083,0,0,,,,,,,,,,,0.0,0.0,0.0,0.0,0.0,0.0,0.0,0.0,,,,-0.0137725360692,0.0547028630972,-1.50501728058e-05,0,0,0.0,0.0,0.300000011921,0,77,,,,,,,,,0,0.0,0.0,0.0,0.0,0,0.0,0,0.0,,,,,,,,,,,,,,,,11.5657138824,11.5975351334,-1.0,-1.0,,,,,,,,,,,,,,,,,,,,,,,,,,,,,,,,,,,,,,,,,,,,,,,,,,,,,,,,,,,,,,,,,,,,,,,,,,,,,,,,,,,,,,,,,,,,,,,,,,,,,,,3871710,PX4FMU_V1,251760679a4bed86fdb10746062fde2cc23e460f,test,305419904.0
0.0027362043038,-0.0109846256673,2.5540573597,-0.0033726869151,-0.00349717051722,-0.00413526361808,-0.119063004851,-0.0340942963958,-9.64738750458,0.0,-0.0,2.5540573597,0.0,-0.119063004851,-0.0340942963958,-9.64738750458,-0.00563213787973,-0.00356136751361,-0.00487693119794,-0.205708622932,-0.131123289466,0.43602925539,1017.77996826,-37.6402397156,26.0199985504,0.0,0.0,0.0,0.0,0.0,0.0,0.0,0.0,0.0,0.0,0.0,0.0,0.0,0,0,0,0.0,0.0,,,,,,,,,,,,,,,,,,,,-0.00134001148399,0.00759464642033,0.000618023099378,0.0,0,1,0,0.931731522083,0,0,,,,,,,,,,,0.0,0.0,0.0,0.0,0.0,0.0,0.0,0.0,,,,-0.0136804683134,0.0549231879413,-1.51097774506e-05,0,0,0.0,0.0,0.300000011921,0,77,,,,,,,,,0,0.0,0.0,0.0,0.0,0,0.0,0,0.0,,,,,,,,,,,,,,,,11.5657138824,11.5974721909,-1.0,-1.0,,,,,,,,,,,,,,,,,,,,,,,,,,,,,,,,,,,,,,,,,,,,,,,,,,,,,,,,,,,,,,,,,,,,,,,,,,,,,,,,,,,,,,,,,,,,,,,,,,,,,,,3892856,PX4FMU_V1,251760679a4bed86fdb10746062fde2cc23e460f,test,305419904.0
0.00269490410574,-0.0110156806186,2.55724167824,-0.00291074044071,-0.00383982411586,-0.000745772442315,-0.109887190163,-0.0864283964038,-9.68706893921,0.0,-0.0,2.55724167824,0.0,-0.109887190163,-0.0864283964038,-9.68706893921,-0.00334236118942,-0.00369216734543,0.00634898804128,-0.240569084883,-0.141942352057,0.439589679241,1017.7699585,-37.5573005676,26.0199985504,0.0,0.0,0.0,0.0,0.0,0.0,0.0,0.0,0.0,0.0,0.0,0.0,0.0,0,0,0,0.0,0.0,,,,,,,,,,,,,,,,,,,,-0.00137322035152,0.00765937799588,0.000109621752927,0.0,0,1,0,0.931731522083,0,0,,,,,,,,,,,0.0,0.0,0.0,0.0,0.0,0.0,0.0,0.0,,,,-0.0134739745408,0.0550784692168,-1.49607658386e-05,0,-12,0.00452033244073,0.108244493604,0.300000011921,43,77,,,,,,,,,0,0.0,0.0,0.0,0.0,0,0.0,0,0.0,,,,,,,,,,,,,,,,11.5657138824,11.5974092484,-1.0,-1.0,,,,,,,,,,,,,,,,,,,,,,,,,,,,,,,,,,,,,,,,,,,,,,,,,,,,,,,,,,,,,,,,,,,,,,,,,,,,,,,,,,,,,,,,,,,,,,,,,,,,,,,3915358,PX4FMU_V1,251760679a4bed86fdb10746062fde2cc23e460f,test,305419904.0
0.00268652057275,-0.0110566085204,2.55731797218,-0.00271367654204,-0.00367580424063,-0.00645456509665,-0.0860064998269,-0.0792335569859,-9.67286777496,0.0,-0.0,2.55731797218,0.0,-0.0860064998269,-0.0792335569859,-9.67286777496,-0.00394305260852,-0.00311636319384,-0.00635457597673,-0.202956497669,-0.131123289466,0.431578755379,1017.78997803,-37.7231826782,26.0199985504,0.0,0.0,0.0,0.0,0.0,0.0,0.0,0.0,0.0,0.0,0.0,0.0,0.0,0,0,0,0.0,0.0,,,,,,,,,,,,,,,,,,,,-0.00139338977169,0.0076646595262,0.000965954095591,0.0,0,1,0,0.931731522083,0,0,,,,,,,,,,,0.0,0.0,0.0,0.0,0.0,0.0,0.0,0.0,,,,-0.013432059437,0.0552831180394,-1.48713588715e-05,0,0,0.0,0.0,0.300000011921,0,77,,,,,,,,,0,0.0,0.0,0.0,0.0,0,0.0,0,0.0,,,,,,,,,,,,,,,,11.5992383957,11.5974111557,-1.0,-1.0,,,,,,,,,,,,,,,,,,,,,,,,,,,,,,,,,,,,,,,,,,,,,,,,,,,,,,,,,,,,,,,,,,,,,,,,,,,,,,,,,,,,,,,,,,,,,,,,,,,,,,,3936391,PX4FMU_V1,251760679a4bed86fdb10746062fde2cc23e460f,test,305419904.0
0.00264534866437,-0.0110702794045,2.5592417717,-0.00230711488985,-0.00296135945246,-0.00167686771601,-0.0263407565653,-0.0856543332338,-9.71376228333,0.0,-0.0,2.5592417717,0.0,-0.0263407565653,-0.0856543332338,-9.71376228333,-0.00158688286319,-0.00306399306282,-0.00272966688499,-0.201121732593,-0.106156252325,0.420007348061,1017.72998047,-37.2255249023,26.0199985504,0.0,0.0,0.0,0.0,0.0,0.0,0.0,0.0,0.0,0.0,0.0,0.0,0.0,0,0,0,0.0,0.0,,,,,,,,,,,,,,,,,,,,-0.00141948158853,0.00758066680282,0.000249312870437,0.0,0,1,0,0.931731522083,0,0,,,,,,,,,,,0.0,0.0,0.0,0.0,0.0,0.0,0.0,0.0,,,,-0.0132262045518,0.0553514622152,-1.47819519043e-05,0,0,0.0,0.0,0.300000011921,0,77,,,,,,,,,0,0.0,0.0,0.0,0.0,0,0.0,0,0.0,,,,,,,,,,,,,,,,11.5908565521,11.5973978043,-1.0,-1.0,,,,,,,,,,,,,,,,,,,,,,,,,,,,,,,,,,,,,,,,,,,,,,,,,,,,,,,,,,,,,,,,,,,,,,,,,,,,,,,,,,,,,,,,,,,,,,,,,,,,,,,3957524,PX4FMU_V1,251760679a4bed86fdb10746062fde2cc23e460f,test,305419904.0
0.00262035545893,-0.0111065832898,2.56281733513,-0.00267515215091,-0.00274229771458,-0.00105594482739,-0.0425958372653,-0.0541357845068,-9.67327213287,0.0,-0.0,2.56281733513,0.0,-0.0425958372653,-0.0541357845068,-9.67327213287,-0.00302837230265,-0.00233717402443,0.00151650095358,-0.224056243896,-0.107820726931,0.428908407688,1017.75994873,-37.474357605,26.0299987793,0.0,0.0,0.0,0.0,0.0,0.0,0.0,0.0,0.0,0.0,0.0,0.0,0.0,0,0,0,0.0,0.0,,,,,,,,,,,,,,,,,,,,-0.0013553914614,0.00757578527555,0.000156210197019,0.0,0,1,0,0.931731522083,0,0,,,,,,,,,,,0.0,0.0,0.0,0.0,0.0,0.0,0.0,0.0,,,,-0.01310124062,0.055532976985,-1.45435315062e-05,0,0,0.0,0.0,0.300000011921,0,77,,,,,,,,,0,0.0,0.0,0.0,0.0,0,0.0,0,0.0,,,,,,,,,,,,,,,,11.5908565521,11.5973930359,-1.0,-1.0,,,,,,,,,,,,,,,,,,,,,,,,,,,,,,,,,,,,,,,,,,,,,,,,,,,,,,,,,,,,,,,,,,,,,,,,,,,,,,,,,,,,,,,,,,,,,,,,,,,,,,,3979211,PX4FMU_V1,251760679a4bed86fdb10746062fde2cc23e460f,test,305419904.0
0.0025778117124,-0.0111335515976,2.56614995003,-0.00274409819394,-0.00354400323704,-0.00357108283788,-0.0340173691511,-0.0122711537406,-9.71270370483,0.0,-0.0,2.56614995003,0.0,-0.0340173691511,-0.0122711537406,-9.71270370483,-0.00322344759479,-0.00441898871213,-0.00150362332352,-0.236899554729,-0.122800953686,0.433358937502,1017.73999023,-37.3084716797,26.0299987793,0.0,0.0,0.0,0.0,0.0,0.0,0.0,0.0,0.0,0.0,0.0,0.0,0.0,0,0,0,0.0,0.0,,,,,,,,,,,,,,,,,,,,-0.00131877558306,0.00769753754139,0.000533498823643,0.0,0,1,0,0.931731522083,0,0,,,,,,,,,,,0.0,0.0,0.0,0.0,0.0,0.0,0.0,0.0,,,,-0.012888526544,0.0556678250432,-1.44243240356e-05,0,0,0.0,0.0,0.300000011921,0,77,,,,,,,,,0,0.0,0.0,0.0,0.0,0,0.0,0,0.0,,,,,,,,,,,,,,,,11.5908565521,11.5973796844,-1.0,-1.0,,,,,,,,,,,,,,,,,,,,,,,,,,,,,,,,,,,,,,,,,,,,,,,,,,,,,,,,,,,,,,,,,,,,,,,,,,,,,,,,,,,,,,,,,,,,,,,,,,,,,,,3999945,PX4FMU_V1,251760679a4bed86fdb10746062fde2cc23e460f,test,305419904.0
0.00256068119779,-0.0111567443237,2.56653642654,-0.00199252692983,-0.00324071431533,-0.00271661160514,-0.0569580048323,-0.0854755342007,-9.64922428131,0.0,-0.0,2.56653642654,0.0,-0.0569580048323,-0.0854755342007,-9.64922428131,-0.00353296939284,-0.00386686017737,-0.000917889643461,-0.235064819455,-0.143606826663,0.428908407688,1017.73999023,-37.3084716797,26.0299987793,0.0,0.0,0.0,0.0,0.0,0.0,0.0,0.0,0.0,0.0,0.0,0.0,0.0,0,0,0,0.0,0.0,,,,,,,,,,,,,,,,,,,,-0.00140534481034,0.00767318392172,0.000405337050324,0.0,0,1,0,0.931731522083,0,0,,,,,,,,,,,0.0,0.0,0.0,0.0,0.0,0.0,0.0,0.0,,,,-0.0128028728068,0.055783778429,-1.43647175719e-05,0,0,0.0,0.0,0.300000011921,0,77,,,,,,,,,0,0.0,0.0,0.0,0.0,0,0.0,0,0.0,,,,,,,,,,,,,,,,11.5992383957,11.5973815918,-1.0,-1.0,,,,,,,,,,,,,,,,,,,,,,,,,,,,,,,,,,,,,,,,,,,,,,,,,,,,,,,,,,,,,,,,,,,,,,,,,,,,,,,,,,,,,,,,,,,,,,,,,,,,,,,4021317,PX4FMU_V1,251760679a4bed86fdb10746062fde2cc23e460f,test,305419904.0
0.00252177286893,-0.011178266257,2.56761598587,-0.00206463807262,-0.00290708825924,-0.00480386707932,-0.0753682851791,-0.102452963591,-9.65914535522,0.0,-0.0,2.56761598587,0.0,-0.0753682851791,-0.102452963591,-9.65914535522,-0.00256158132106,-0.00287743378431,-0.00466118659824,-0.238734319806,-0.137781187892,0.437809497118,1017.75994873,-37.474357605,26.0299987793,0.0,0.0,0.0,0.0,0.0,0.0,0.0,0.0,0.0,0.0,0.0,0.0,0.0,0,0,0,0.0,0.0,,,,,,,,,,,,,,,,,,,,-0.00137068040203,0.00764380162582,0.000718465598766,0.0,0,1,0,0.931731522083,0,0,,,,,,,,,,,0.0,0.0,0.0,0.0,0.0,0.0,0.0,0.0,,,,-0.0126083334908,0.0558913871646,-1.40964993989e-05,0,0,0.0,0.0,0.300000011921,0,77,,,,,,,,,0,0.0,0.0,0.0,0.0,0,0.0,0,0.0,,,,,,,,,,,,,,,,11.5908565521,11.5973596573,-1.0,-1.0,,,,,,,,,,,,,,,,,,,,,,,,,,,,,,,,,,,,,,,,,,,,,,,,,,,,,,,,,,,,,,,,,,,,,,,,,,,,,,,,,,,,,,,,,,,,,,,,,,,,,,,4043605,PX4FMU_V1,251760679a4bed86fdb10746062fde2cc23e460f,test,305419904.0
0.00246046413668,-0.0112152323127,2.56931185722,-0.00283872033469,-0.00373631808907,-0.00330826430582,-0.0440297611058,-0.0283496882766,-9.65559577942,0.0,-0.0,2.56931185722,0.0,-0.0440297611058,-0.0283496882766,-9.65559577942,-0.00132152438164,-0.00363679765724,-0.00514913583174,-0.236899554729,-0.139445647597,0.433358937502,1017.75,-37.3914146423,26.0299987793,0.0,0.0,0.0,0.0,0.0,0.0,0.0,0.0,0.0,0.0,0.0,0.0,0.0,0,0,0,0.0,0.0,,,,,,,,,,,,,,,,,,,,-0.00123020110186,0.00777562987059,0.000494178850204,0.0,0,1,0,0.931568145752,0,0,,,,,,,,,,,0.0,0.0,0.0,0.0,0.0,0.0,0.0,0.0,,,,-0.0123018063605,0.056076221168,-1.37388706207e-05,0,0,0.0,0.0,0.300000011921,0,77,,,,,,,,,0,0.0,0.0,0.0,0.0,0,0.0,0,0.0,,,,,,,,,,,,,,,,11.5992383957,11.5973548889,-1.0,-1.0,,,,,,,,,,,,,,,,,,,,,,,,,,,,,,,,,,,,,,,,,,,,,,,,,,,,,,,,,,,,,,,,,,,,,,,,,,,,,,,,,,,,,,,,,,,,,,,,,,,,,,,4064288,PX4FMU_V1,251760679a4bed86fdb10746062fde2cc23e460f,test,305419904.0
0.00246921065263,-0.0112629588693,2.57134485245,-0.00210957974195,-0.00351461046375,-0.00330021348782,-0.0301549378783,-0.0642060488462,-9.72245025635,0.0,-0.0,2.57134485245,0.0,-0.0301549378783,-0.0642060488462,-9.72245025635,-0.00270082917996,-0.00348294945434,-0.00222556269728,-0.240569084883,-0.13195553422,0.435139149427,1017.77996826,-37.6402397156,26.0199985504,0.0,0.0,0.0,0.0,0.0,0.0,0.0,0.0,0.0,0.0,0.0,0.0,0.0,0,0,0,0.0,0.0,,,,,,,,,,,,,,,,,,,,-0.00133067369461,0.00777782825753,0.000492957828101,0.0,0,1,0,0.931568145752,0,0,,,,,,,,,,,0.0,0.0,0.0,0.0,0.0,0.0,0.0,0.0,,,,-0.0123455319554,0.0563148409128,-1.38282784974e-05,0,0,0.0,0.0,0.300000011921,0,77,,,,,,,,,0,0.0,0.0,0.0,0.0,0,0.0,0,0.0,,,,,,,,,,,,,,,,11.5908565521,11.5973415375,-1.0,-1.0,,,,,,,,,,,,,,,,,,,,,,,,,,,,,,,,,,,,,,,,,,,,,,,,,,,,,,,,,,,,,,,,,,,,,,,,,,,,,,,,,,,,,,,,,,,,,,,,,,,,,,,4085692,PX4FMU_V1,251760679a4bed86fdb10746062fde2cc23e460f,test,305419904.0
0.00245224987157,-0.011320178397,2.57322454453,-0.00236172298901,-0.00443440908566,-0.00302237062715,-0.0326728895307,-0.0706956982613,-9.67519950867,0.0,-0.0,2.57322454453,0.0,-0.0326728895307,-0.0706956982613,-9.67519950867,-0.00259480113164,-0.00489442143589,-0.00329779740423,-0.239651694894,-0.133620008826,0.434249043465,1017.72998047,-37.2255249023,26.0199985504,0.0,0.0,0.0,0.0,0.0,0.0,0.0,0.0,0.0,0.0,0.0,0.0,0.0,0,0,0,0.0,0.0,,,,,,,,,,,,,,,,,,,,-0.00128687045071,0.00793459638953,0.000451263476862,0.0,0,1,0,0.931568145752,0,0,,,,,,,,,,,0.0,0.0,0.0,0.0,0.0,0.0,0.0,0.0,,,,-0.012260726653,0.056600946933,-1.39474868774e-05,0,0,0.0,0.0,0.300000011921,0,77,,,,,,,,,0,0.0,0.0,0.0,0.0,0,0.0,0,0.0,,,,,,,,,,,,,,,,11.5908565521,11.597328186,-1.0,-1.0,,,,,,,,,,,,,,,,,,,,,,,,,,,,,,,,,,,,,,,,,,,,,,,,,,,,,,,,,,,,,,,,,,,,,,,,,,,,,,,,,,,,,,,,,,,,,,,,,,,,,,,4107645,PX4FMU_V1,251760679a4bed86fdb10746062fde2cc23e460f,test,305419904.0
0.00240913080052,-0.0113682318479,2.57521820068,-0.00347313866951,-0.003661547089,-0.00167033693288,-0.0766764730215,-0.0430766642094,-9.65838336945,0.0,-0.0,2.57521820068,0.0,-0.0766764730215,-0.0430766642094,-9.65838336945,-0.00359706673771,-0.00311262742616,-0.00239561172202,-0.236899554729,-0.130291074514,0.435139149427,1017.77996826,-37.6402397156,26.0299987793,0.0,0.0,0.0,0.0,0.0,0.0,0.0,0.0,0.0,0.0,0.0,0.0,0.0,0,0,0,0.0,0.0,,,,,,,,,,,,,,,,,,,,-0.00111435877625,0.00786535721272,0.000248498661676,0.0,0,1,0,0.931568145752,0,0,,,,,,,,,,,0.0,0.0,0.0,0.0,0.0,0.0,0.0,0.0,,,,-0.0120451292023,0.0568412020802,-1.3679265976e-05,0,0,0.0,0.0,0.300000011921,0,77,,,,,,,,,0,0.0,0.0,0.0,0.0,0,0.0,0,0.0,,,,,,,,,,,,,,,,11.5992383957,11.5973300934,-1.0,-1.0,,,,,,,,,,,,,,,,,,,,,,,,,,,,,,,,,,,,,,,,,,,,,,,,,,,,,,,,,,,,,,,,,,,,,,,,,,,,,,,,,,,,,,,,,,,,,,,,,,,,,,,4128937,PX4FMU_V1,251760679a4bed86fdb10746062fde2cc23e460f,test,305419904.0
0.00236294860952,-0.0113943470642,2.57609391212,-0.00359978573397,-0.00301868887618,-0.00300909811631,-0.0766032040119,-0.0396134369075,-9.67259120941,0.0,-0.0,2.57609391212,0.0,-0.0766032040119,-0.0396134369075,-9.67259120941,-0.00284371501766,-0.00250284885988,-0.00165184121579,-0.240569084883,-0.132787778974,0.432468831539,1017.75994873,-37.474357605,26.0299987793,0.0,0.0,0.0,0.0,0.0,0.0,0.0,0.0,0.0,0.0,0.0,0.0,0.0,0,0,0,0.0,0.0,,,,,,,,,,,,,,,,,,,,-0.00113890576176,0.00775855127722,0.000328669528244,0.0,0,1,0,0.931568145752,0,0,,,,,,,,,,,0.0,0.0,0.0,0.0,0.0,0.0,0.0,0.0,,,,-0.0118071734905,0.0569759123027,-1.35004520416e-05,-1,16,0.0109788775444,-0.149599805474,0.300000011921,43,77,,,,,,,,,0,0.0,0.0,0.0,0.0,0,0.0,0,0.0,,,,,,,,,,,,,,,,11.5908565521,11.5973167419,-1.0,-1.0,,,,,,,,,,,,,,,,,,,,,,,,,,,,,,,,,,,,,,,,,,,,,,,,,,,,,,,,,,,,,,,,,,,,,,,,,,,,,,,,,,,,,,,,,,,,,,,,,,,,,,,4150219,PX4FMU_V1,251760679a4bed86fdb10746062fde2cc23e460f,test,305419904.0
0.00235343840905,-0.0114251300693,2.57750344276,-0.00271118339151,-0.00342907197773,-0.0047679557465,-0.0547394156456,-0.0547823607922,-9.65406990051,0.0,-0.0,2.57750344276,0.0,-0.0547394156456,-0.0547823607922,-9.65406990051,-0.00308811664581,-0.00379707966931,-0.0051972893998,-0.238734319806,-0.132787778974,0.427128195763,1017.75,-37.3914146423,26.0299987793,0.0,0.0,0.0,0.0,0.0,0.0,0.0,0.0,0.0,0.0,0.0,0.0,0.0,0,0,0,0.0,0.0,,,,,,,,,,,,,,,,,,,,-0.00117721490096,0.00787212140858,0.000713172776159,0.0,0,1,0,0.931568145752,0,0,,,,,,,,,,,0.0,0.0,0.0,0.0,0.0,0.0,0.0,0.0,,,,-0.0117666833103,0.0571257062256,-1.34706497192e-05,0,0,0.0,0.0,0.300000011921,0,77,,,,,,,,,0,0.0,0.0,0.0,0.0,0,0.0,0,0.0,,,,,,,,,,,,,,,,11.5908565521,11.5973033905,-1.0,-1.0,,,,,,,,,,,,,,,,,,,,,,,,,,,,,,,,,,,,,,,,,,,,,,,,,,,,,,,,,,,,,,,,,,,,,,,,,,,,,,,,,,,,,,,,,,,,,,,,,,,,,,,4172367,PX4FMU_V1,251760679a4bed86fdb10746062fde2cc23e460f,test,305419904.0
0.00230856635608,-0.0114393504336,2.57826399803,-0.00327494810335,-0.00241103838198,-0.00390680599958,-0.0711646601558,-0.0754804238677,-9.68225288391,0.0,-0.0,2.57826399803,0.0,-0.0711646601558,-0.0754804238677,-9.68225288391,-0.00313572096638,-0.00254019815475,-0.00513471849263,-0.237816929817,-0.132787778974,0.436919361353,1017.77996826,-37.6402397156,26.0399990082,0.0,0.0,0.0,0.0,0.0,0.0,0.0,0.0,0.0,0.0,0.0,0.0,0.0,0,0,0,0.0,0.0,,,,,,,,,,,,,,,,,,,,-0.00107475975528,0.00774901686236,0.000584045017604,0.0,0,1,0,0.931568145752,0,0,,,,,,,,,,,0.0,0.0,0.0,0.0,0.0,0.0,0.0,0.0,,,,-0.0115423314273,0.0571967847645,-1.31726264954e-05,3,4,-0.034615367651,-0.0406476221979,0.300000011921,51,77,,,,,,,,,0,0.0,0.0,0.0,0.0,0,0.0,0,0.0,,,,,,,,,,,,,,,,11.5908565521,11.5972900391,-1.0,-1.0,,,,,,,,,,,,,,,,,,,,,,,,,,,,,,,,,,,,,,,,,,,,,,,,,,,,,,,,,,,,,,,,,,,,,,,,,,,,,,,,,,,,,,,,,,,,,,,,,,,,,,,4193526,PX4FMU_V1,251760679a4bed86fdb10746062fde2cc23e460f,test,305419904.0
0.00226982613094,-0.01145340316,2.58013677597,-0.00221549090929,-0.00324111524969,-0.00416005169973,-0.0712874382734,-0.0514278970659,-9.68461894989,0.0,-0.0,2.58013677597,0.0,-0.0712874382734,-0.0514278970659,-9.68461894989,-0.00160294538364,-0.00324210012332,-0.00449597463012,-0.238734319806,-0.136948943138,0.430688619614,1017.7699585,-37.5573005676,26.0399990082,0.0,0.0,0.0,0.0,0.0,0.0,0.0,0.0,0.0,0.0,0.0,0.0,0.0,0,0,0,0.0,0.0,,,,,,,,,,,,,,,,,,,,-0.00118730822578,0.00786606315523,0.000622058694717,0.0,0,1,0,0.931568145752,0,0,,,,,,,,,,,0.0,0.0,0.0,0.0,0.0,0.0,0.0,0.0,,,,-0.011348631233,0.0572670660913,-1.2993812561e-05,-17,-22,0.133919224143,0.171052351594,0.300000011921,51,77,,,,,,,,,0,0.0,0.0,0.0,0.0,0,0.0,0,0.0,,,,,,,,,,,,,,,,11.5908565521,11.5972766876,-1.0,-1.0,,,,,,,,,,,,,,,,,,,,,,,,,,,,,,,,,,,,,,,,,,,,,,,,,,,,,,,,,,,,,,,,,,,,,,,,,,,,,,,,,,,,,,,,,,,,,,,,,,,,,,,4216132,PX4FMU_V1,251760679a4bed86fdb10746062fde2cc23e460f,test,305419904.0
0.00223857560195,-0.0114944195375,2.58050322533,-0.00316869886592,-0.003924226854,-0.00395267736167,-0.0746920034289,-0.0394660979509,-9.68453979492,0.0,-0.0,2.58050322533,0.0,-0.0746920034289,-0.0394660979509,-9.68453979492,-0.00289305951446,-0.00356689398177,-0.00348048191518,-0.239651694894,-0.141110122204,0.422677665949,1017.79998779,-37.8061218262,26.0299987793,0.0,0.0,0.0,0.0,0.0,0.0,0.0,0.0,0.0,0.0,0.0,0.0,0.0,0,0,0,0.0,0.0,,,,,,,,,,,,,,,,,,,,-0.00104307895526,0.00798152759671,0.000590974930674,0.0,0,1,0,0.931568145752,0,0,,,,,,,,,,,0.0,0.0,0.0,0.0,0.0,0.0,0.0,0.0,,,,-0.011192384176,0.0574721433222,-1.28447991301e-05,0,0,0.0,0.0,0.300000011921,0,77,,,,,,,,,0,0.0,0.0,0.0,0.0,0,0.0,0,0.0,,,,,,,,,,,,,,,,11.5908565521,11.5972700119,-1.0,-1.0,,,,,,,,,,,,,,,,,,,,,,,,,,,,,,,,,,,,,,,,,,,,,,,,,,,,,,,,,,,,,,,,,,,,,,,,,,,,,,,,,,,,,,,,,,,,,,,,,,,,,,,4236787,PX4FMU_V1,251760679a4bed86fdb10746062fde2cc23e460f,test,305419904.0
0.00221164431423,-0.0115254269913,2.58144688606,-0.00330259953626,-0.00329178269021,-0.00328231719323,-0.06947478652,-0.0571172684431,-9.66387844086,0.0,-0.0,2.58144688606,0.0,-0.06947478652,-0.0571172684431,-9.66387844086,-0.00328211043961,-0.00342373875901,-0.00341568677686,-0.235982164741,-0.136948943138,0.425347983837,1017.75,-37.3914146423,26.0299987793,0.0,0.0,0.0,0.0,0.0,0.0,0.0,0.0,0.0,0.0,0.0,0.0,0.0,0,0,0,0.0,0.0,,,,,,,,,,,,,,,,,,,,-0.00100816728082,0.00791946519166,0.000490443257149,0.0,0,1,0,0.931568145752,0,0,,,,,,,,,,,0.0,0.0,0.0,0.0,0.0,0.0,0.0,0.0,,,,-0.0110577326268,0.0576271824539,-1.26957902467e-05,-2,6,0.0213158149272,-0.054473746568,0.300000011921,75,77,,,,,,,,,0,0.0,0.0,0.0,0.0,0,0.0,0,0.0,,,,,,,,,,,,,,,,11.5908565521,11.5972566605,-1.0,-1.0,,,,,,,,,,,,,,,,,,,,,,,,,,,,,,,,,,,,,,,,,,,,,,,,,,,,,,,,,,,,,,,,,,,,,,,,,,,,,,,,,,,,,,,,,,,,,,,,,,,,,,,4258129,PX4FMU_V1,251760679a4bed86fdb10746062fde2cc23e460f,test,305419904.0
0.00218471582048,-0.0115601858124,2.58294534683,-0.00294215860777,-0.00299628684297,-0.00367521774024,-0.0855646207929,-0.081017203629,-9.67392730713,0.0,-0.0,2.58294534683,0.0,-0.0855646207929,-0.081017203629,-9.67392730713,-0.00285532954149,-0.00324098509736,-0.00383081659675,-0.237816929817,-0.131123289466,0.435139149427,1017.75,-37.3914146423,26.0299987793,0.0,0.0,0.0,0.0,0.0,0.0,0.0,0.0,0.0,0.0,0.0,0.0,0.0,0,0,0,0.0,0.0,,,,,,,,,,,,,,,,,,,,-0.00103752117138,0.00790364202112,0.000549396208953,0.0,0,1,0,0.93150395155,0,0,,,,,,,,,,,0.0,0.0,0.0,0.0,0.0,0.0,0.0,0.0,,,,-0.0109230913222,0.057800963521,-1.25765800476e-05,3,-1,-0.0346773415804,0.00914157554507,0.300000011921,63,77,,,,,,,,,0,0.0,0.0,0.0,0.0,0,0.0,0,0.0,,,,,,,,,,,,,,,,11.5992383957,11.5972518921,-1.0,-1.0,,,,,,,,,,,,,,,,,,,,,,,,,,,,,,,,,,,,,,,,,,,,,,,,,,,,,,,,,,,,,,,,,,,,,,,,,,,,,,,,,,,,,,,,,,,,,,,,,,,,,,,4280080,PX4FMU_V1,251760679a4bed86fdb10746062fde2cc23e460f,test,305419904.0
0.00216374266893,-0.0116037447006,2.58429169655,-0.00222515268251,-0.00363182811998,-0.00370530202053,-0.084626249969,-0.0580922886729,-9.68299770355,0.0,-0.0,2.58429169655,0.0,-0.084626249969,-0.0580922886729,-9.68299770355,-0.00200572167523,-0.00349806505255,-0.00371500803158,-0.237816929817,-0.135284468532,0.435139149427,1017.75,-37.3914146423,26.0399990082,0.0,0.0,0.0,0.0,0.0,0.0,0.0,0.0,0.0,0.0,0.0,0.0,0.0,0,0,0,0.0,0.0,,,,,,,,,,,,,,,,,,,,-0.00111709965859,0.00801457464695,0.000553890946321,0.0,0,1,0,0.93150395155,0,0,,,,,,,,,,,0.0,0.0,0.0,0.0,0.0,0.0,0.0,0.0,,,,-0.0108182281256,0.0580187514424,-1.26957893372e-05,0,0,0.0,0.0,0.300000011921,0,77,,,,,,,,,0,0.0,0.0,0.0,0.0,0,0.0,0,0.0,,,,,,,,,,,,,,,,11.5908565521,11.5972471237,-1.0,-1.0,,,,,,,,,,,,,,,,,,,,,,,,,,,,,,,,,,,,,,,,,,,,,,,,,,,,,,,,,,,,,,,,,,,,,,,,,,,,,,,,,,,,,,,,,,,,,,,,,,,,,,,4301572,PX4FMU_V1,251760679a4bed86fdb10746062fde2cc23e460f,test,305419904.0
0.00215309602208,-0.011646412313,2.58499407768,-0.00191498268396,-0.00348542723805,-0.0037539342884,-0.0661415159702,-0.048756737262,-9.69747447968,0.0,-0.0,2.58499407768,0.0,-0.0661415159702,-0.048756737262,-9.69747447968,-0.00205753673799,-0.00343385594897,-0.00375294825062,-0.238734319806,-0.13195553422,0.434249043465,1017.72998047,-37.2255249023,26.0399990082,0.0,0.0,0.0,0.0,0.0,0.0,0.0,0.0,0.0,0.0,0.0,0.0,0.0,0,0,0,0.0,0.0,,,,,,,,,,,,,,,,,,,,-0.00115050200839,0.00802327785641,0.000561208173167,0.0,0,1,0,0.93150395155,0,0,,,,,,,,,,,0.0,0.0,0.0,0.0,0.0,0.0,0.0,0.0,,,,-0.0107649983838,0.0582320988178,-1.25467777252e-05,0,0,0.0,0.0,0.300000011921,0,77,,,,,,,,,0,0.0,0.0,0.0,0.0,0,0.0,0,0.0,,,,,,,,,,,,,,,,11.5824756622,11.5972328186,-1.0,-1.0,,,,,,,,,,,,,,,,,,,,,,,,,,,,,,,,,,,,,,,,,,,,,,,,,,,,,,,,,,,,,,,,,,,,,,,,,,,,,,,,,,,,,,,,,,,,,,,,,,,,,,,4322610,PX4FMU_V1,251760679a4bed86fdb10746062fde2cc23e460f,test,305419904.0
0.00213706516661,-0.0116839027032,2.586561203,-0.0022848600056,-0.00341746257618,-0.00400007003918,-0.0726450160146,-0.0550745204091,-9.68666172028,0.0,-0.0,2.586561203,0.0,-0.0726450160146,-0.0550745204091,-9.68666172028,-0.00266019371338,-0.00370089476928,-0.00423587113619,-0.241486474872,-0.131123289466,0.425347983837,1017.77996826,-37.6402397156,26.0399990082,0.0,0.0,0.0,0.0,0.0,0.0,0.0,0.0,0.0,0.0,0.0,0.0,0.0,0,0,0,0.0,0.0,,,,,,,,,,,,,,,,,,,,-0.00109199690633,0.0080388141796,0.000598141923547,0.0,0,1,0,0.93150395155,0,0,,,,,,,,,,,0.0,0.0,0.0,0.0,0.0,0.0,0.0,0.0,,,,-0.0106848366559,0.0584195703268,-1.2457372577e-05,0,0,0.0,0.0,0.300000011921,0,77,,,,,,,,,0,0.0,0.0,0.0,0.0,0,0.0,0,0.0,,,,,,,,,,,,,,,,11.5908565521,11.5972194672,-1.0,-1.0,,,,,,,,,,,,,,,,,,,,,,,,,,,,,,,,,,,,,,,,,,,,,,,,,,,,,,,,,,,,,,,,,,,,,,,,,,,,,,,,,,,,,,,,,,,,,,,,,,,,,,,4344220,PX4FMU_V1,251760679a4bed86fdb10746062fde2cc23e460f,test,305419904.0
0.00211390852928,-0.0117216864601,2.58815026283,-0.00246341316961,-0.00311636598781,-0.00275691156276,-0.076533280313,-0.0550629906356,-9.65059089661,0.0,-0.0,2.58815026283,0.0,-0.076533280313,-0.0550629906356,-9.65059089661,-0.00241399230435,-0.00259807449766,-0.00190848950297,-0.238734319806,-0.131123289466,0.435139149427,1017.7699585,-37.5573005676,26.0399990082,0.0,0.0,0.0,0.0,0.0,0.0,0.0,0.0,0.0,0.0,0.0,0.0,0.0,0,0,0,0.0,0.0,,,,,,,,,,,,,,,,,,,,-0.00105373363476,0.00802422780544,0.000411690503825,0.0,0,1,0,0.93150395155,0,0,,,,,,,,,,,0.0,0.0,0.0,0.0,0.0,0.0,0.0,0.0,,,,-0.0105690574273,0.058608468622,-1.23083591461e-05,0,0,0.0,0.0,0.300000011921,0,77,,,,,,,,,0,0.0,0.0,0.0,0.0,0,0.0,0,0.0,,,,,,,,,,,,,,,,11.5908565521,11.5972061157,-1.0,-1.0,,,,,,,,,,,,,,,,,,,,,,,,,,,,,,,,,,,,,,,,,,,,,,,,,,,,,,,,,,,,,,,,,,,,,,,,,,,,,,,,,,,,,,,,,,,,,,,,,,,,,,,4364963,PX4FMU_V1,251760679a4bed86fdb10746062fde2cc23e460f,test,305419904.0
0.00207717414014,-0.0117479590699,2.5893702507,-0.00326458434574,-0.0034780909773,-0.00343073252589,-0.0598955973983,-0.0438295453787,-9.6892118454,0.0,-0.0,2.5893702507,0.0,-0.0598955973983,-0.0438295453787,-9.6892118454,-0.00316850002855,-0.00369875808246,-0.00365565996617,-0.238734319806,-0.136116713285,0.435139149427,1017.7699585,-37.5573005676,26.0399990082,0.0,0.0,0.0,0.0,0.0,0.0,0.0,0.0,0.0,0.0,0.0,0.0,0.0,0,0,0,0.0,0.0,,,,,,,,,,,,,,,,,,,,-0.000925705418922,0.00808833073825,0.000512772588991,0.0,0,1,0,0.93150395155,0,0,,,,,,,,,,,0.0,0.0,0.0,0.0,0.0,0.0,0.0,0.0,,,,-0.010385395959,0.0587398372591,-1.22487545013e-05,0,0,0.0,0.0,0.300000011921,0,77,,,,,,,,,0,0.0,0.0,0.0,0.0,0,0.0,0,0.0,,,,,,,,,,,,,,,,11.5908565521,11.5971927643,-1.0,-1.0,,,,,,,,,,,,,,,,,,,,,,,,,,,,,,,,,,,,,,,,,,,,,,,,,,,,,,,,,,,,,,,,,,,,,,,,,,,,,,,,,,,,,,,,,,,,,,,,,,,,,,,4386389,PX4FMU_V1,251760679a4bed86fdb10746062fde2cc23e460f,test,305419904.0
0.00204915343784,-0.0117812361568,2.59067106247,-0.00216393405572,-0.00353256775998,-0.00316454586573,-0.0651204288006,-0.0477387458086,-9.68714523315,0.0,-0.0,2.59067106247,0.0,-0.0651204288006,-0.0477387458086,-9.68714523315,-0.00208337558433,-0.00366135267541,-0.00332644884475,-0.239651694894,-0.133620008826,0.43602925539,1017.78997803,-37.7231826782,26.0399990082,0.0,0.0,0.0,0.0,0.0,0.0,0.0,0.0,0.0,0.0,0.0,0.0,0.0,0,0,0,0.0,0.0,,,,,,,,,,,,,,,,,,,,-0.0010505762184,0.00811704341322,0.000472880346933,0.0,0,1,0,0.93150395155,0,0,,,,,,,,,,,0.0,0.0,0.0,0.0,0.0,0.0,0.0,0.0,,,,-0.0102452896535,0.0589062310755,-1.20103359222e-05,0,0,0.0,0.0,0.300000011921,0,77,,,,,,,,,0,0.0,0.0,0.0,0.0,0,0.0,0,0.0,,,,,,,,,,,,,,,,11.5908565521,11.5971717834,-1.0,-1.0,,,,,,,,,,,,,,,,,,,,,,,,,,,,,,,,,,,,,,,,,,,,,,,,,,,,,,,,,,,,,,,,,,,,,,,,,,,,,,,,,,,,,,,,,,,,,,,,,,,,,,,4408448,PX4FMU_V1,251760679a4bed86fdb10746062fde2cc23e460f,test,305419904.0
0.00203245179728,-0.0118120936677,2.59217238426,-0.00225606933236,-0.00300612510182,-0.00313312932849,-0.0690446868539,-0.0629851296544,-9.67210769653,0.0,-0.0,2.59217238426,0.0,-0.0690446868539,-0.0629851296544,-9.67210769653,-0.00246280571446,-0.00278049311601,-0.00302686193027,-0.239651694894,-0.131123289466,0.435139149427,1017.75994873,-37.474357605,26.0399990082,0.0,0.0,0.0,0.0,0.0,0.0,0.0,0.0,0.0,0.0,0.0,0.0,0.0,0,0,0,0.0,0.0,,,,,,,,,,,,,,,,,,,,-0.00102774333209,0.00806866120547,0.000468167854706,0.0,0,1,0,0.93150395155,0,0,,,,,,,,,,,0.0,0.0,0.0,0.0,0.0,0.0,0.0,0.0,,,,-0.0101617872715,0.0590604990721,-1.20103341033e-05,0,0,0.0,0.0,0.300000011921,0,77,,,,,,,,,0,0.0,0.0,0.0,0.0,0,0.0,0,0.0,,,,,,,,,,,,,,,,11.5908565521,11.5971651077,-1.0,-1.0,,,,,,,,,,,,,,,,,,,,,,,,,,,,,,,,,,,,,,,,,,,,,,,,,,,,,,,,,,,,,,,,,,,,,,,,,,,,,,,,,,,,,,,,,,,,,,,,,,,,,,,4429657,PX4FMU_V1,251760679a4bed86fdb10746062fde2cc23e460f,test,305419904.0
0.00201384513639,-0.0118324179202,2.59259986877,-0.00258605810814,-0.00300863338634,-0.00278835138306,-0.0639890730381,-0.0461078286171,-9.69300174713,0.0,-0.0,2.59259986877,0.0,-0.0639890730381,-0.0461078286171,-9.69300174713,-0.00249894405715,-0.00318006123416,-0.00264027784579,-0.238734319806,-0.135284468532,0.429798513651,1017.7699585,-37.5573005676,26.0499992371,0.0,0.0,0.0,0.0,0.0,0.0,0.0,0.0,0.0,0.0,0.0,0.0,0.0,0,0,0,0.0,0.0,,,,,,,,,,,,,,,,,,,,-0.000972750713117,0.00808219704777,0.000416446710005,0.0,0,1,0,0.93150395155,0,0,,,,,,,,,,,0.0,0.0,0.0,0.0,0.0,0.0,0.0,0.0,,,,-0.0100687565282,0.0591621175408,-1.20401391541e-05,0,0,0.0,0.0,0.300000011921,0,77,,,,,,,,,0,0.0,0.0,0.0,0.0,0,0.0,0,0.0,,,,,,,,,,,,,,,,11.5908565521,11.5971517563,-1.0,-1.0,,,,,,,,,,,,,,,,,,,,,,,,,,,,,,,,,,,,,,,,,,,,,,,,,,,,,,,,,,,,,,,,,,,,,,,,,,,,,,,,,,,,,,,,,,,,,,,,,,,,,,,4450857,PX4FMU_V1,251760679a4bed86fdb10746062fde2cc23e460f,test,305419904.0
0.00198777276091,-0.0118542201817,2.59403634071,-0.00248060259037,-0.0032736195717,-0.0034677865915,-0.0548312813044,-0.0706027597189,-9.6906452179,0.0,-0.0,2.59403634071,0.0,-0.0548312813044,-0.0706027597189,-9.6906452179,-0.00234642368741,-0.00347853405401,-0.00346672721207,-0.238734319806,-0.127794355154,0.43602925539,1017.72998047,-37.2255249023,26.0499992371,0.0,0.0,0.0,0.0,0.0,0.0,0.0,0.0,0.0,0.0,0.0,0.0,0.0,0,0,0,0.0,0.0,,,,,,,,,,,,,,,,,,,,-0.000969513028394,0.0081308176741,0.000518406683113,0.0,0,1,0,0.931429564953,0,0,,,,,,,,,,,0.0,0.0,0.0,0.0,0.0,0.0,0.0,0.0,,,,-0.00993839558214,0.0592711381614,-1.17421150208e-05,0,0,0.0,0.0,0.300000011921,0,77,,,,,,,,,0,0.0,0.0,0.0,0.0,0,0.0,0,0.0,,,,,,,,,,,,,,,,11.5908565521,11.5971384048,-1.0,-1.0,,,,,,,,,,,,,,,,,,,,,,,,,,,,,,,,,,,,,,,,,,,,,,,,,,,,,,,,,,,,,,,,,,,,,,,,,,,,,,,,,,,,,,,,,,,,,,,,,,,,,,,4472324,PX4FMU_V1,251760679a4bed86fdb10746062fde2cc23e460f,test,305419904.0
0.00196497677825,-0.0118759851903,2.59517145157,-0.00303997215815,-0.0032213293016,-0.00255713332444,-0.0548318326473,-0.0552431643009,-9.68107032776,0.0,-0.0,2.59517145157,0.0,-0.0548318326473,-0.0552431643009,-9.68107032776,-0.00326842209324,-0.00306650064886,-0.00263095786795,-0.237816929817,-0.13195553422,0.435139149427,1017.78997803,-37.7231826782,26.0399990082,0.0,0.0,0.0,0.0,0.0,0.0,0.0,0.0,0.0,0.0,0.0,0.0,0.0,0,0,0,0.0,0.0,,,,,,,,,,,,,,,,,,,,-0.000881979241967,0.00813816860318,0.000381831050618,0.0,0,1,0,0.931429564953,0,0,,,,,,,,,,,0.0,0.0,0.0,0.0,0.0,0.0,0.0,0.0,,,,-0.00982442777604,0.0593799650669,-1.15931043183e-05,0,0,0.0,0.0,0.300000011921,0,77,,,,,,,,,0,0.0,0.0,0.0,0.0,0,0.0,0,0.0,,,,,,,,,,,,,,,,11.5992383957,11.5971336365,-1.0,-1.0,,,,,,,,,,,,,,,,,,,,,,,,,,,,,,,,,,,,,,,,,,,,,,,,,,,,,,,,,,,,,,,,,,,,,,,,,,,,,,,,,,,,,,,,,,,,,,,,,,,,,,,4493146,PX4FMU_V1,251760679a4bed86fdb10746062fde2cc23e460f,test,305419904.0
0.00193192937877,-0.0119042433798,2.59584903717,-0.00279243220575,-0.0036793439649,-0.00291403126903,-0.0644174218178,-0.0470700562,-9.681848526,0.0,-0.0,2.59584903717,0.0,-0.0644174218178,-0.0470700562,-9.681848526,-0.00262176385149,-0.00387727213092,-0.00294806063175,-0.236899554729,-0.139445647597,0.434249043465,1017.77996826,-37.6402397156,26.0399990082,0.0,0.0,0.0,0.0,0.0,0.0,0.0,0.0,0.0,0.0,0.0,0.0,0.0,0,0,0,0.0,0.0,,,,,,,,,,,,,,,,,,,,-0.000892679323442,0.00821607746184,0.000435392576037,0.0,0,1,0,0.931429564953,0,0,,,,,,,,,,,0.0,0.0,0.0,0.0,0.0,0.0,0.0,0.0,,,,-0.00965919625014,0.0595212541521,-1.1414290384e-05,-15,-8,0.134999990463,0.0777272731066,0.300000011921,0,77,,,,,,,,,0,0.0,0.0,0.0,0.0,0,0.0,0,0.0,,,,,,,,,,,,,,,,11.5908565521,11.5971269608,-1.0,-1.0,,,,,,,,,,,,,,,,,,,,,,,,,,,,,,,,,,,,,,,,,,,,,,,,,,,,,,,,,,,,,,,,,,,,,,,,,,,,,,,,,,,,,,,,,,,,,,,,,,,,,,,4514359,PX4FMU_V1,251760679a4bed86fdb10746062fde2cc23e460f,test,305419904.0
0.00191279128194,-0.0119462823495,2.59569621086,-0.00220476696268,-0.00359332957305,-0.00316476682201,-0.0605399906635,-0.0639104768634,-9.67257595062,0.0,-0.0,2.59569621086,0.0,-0.0605399906635,-0.0639104768634,-9.67257595062,-0.0020332459826,-0.00325227761641,-0.00339353829622,-0.237816929817,-0.145271286368,0.434249043465,1017.75,-37.3914146423,26.0399990082,0.0,0.0,0.0,0.0,0.0,0.0,0.0,0.0,0.0,0.0,0.0,0.0,0.0,0,0,0,0.0,0.0,,,,,,,,,,,,,,,,,,,,-0.00095663551474,0.00823222286999,0.000472985004308,0.0,0,1,0,0.931429564953,0,0,,,,,,,,,,,0.0,0.0,0.0,0.0,0.0,0.0,0.0,0.0,,,,-0.00956350192428,0.0597314611077,-1.1533500583e-05,0,0,0.0,0.0,0.300000011921,0,77,,,,,,,,,0,0.0,0.0,0.0,0.0,0,0.0,0,0.0,,,,,,,,,,,,,,,,11.5908565521,11.5971136093,-1.0,-1.0,,,,,,,,,,,,,,,,,,,,,,,,,,,,,,,,,,,,,,,,,,,,,,,,,,,,,,,,,,,,,,,,,,,,,,,,,,,,,,,,,,,,,,,,,,,,,,,,,,,,,,,4536637,PX4FMU_V1,251760679a4bed86fdb10746062fde2cc23e460f,test,305419904.0
0.00188379676547,-0.0119757829234,2.59617090225,-0.00333021325059,-0.00360072380863,-0.0032931517344,-0.0649243071675,-0.0613402575254,-9.68127155304,0.0,-0.0,2.59617090225,0.0,-0.0649243071675,-0.0613402575254,-9.68127155304,-0.00361237186007,-0.00336311617866,-0.00308364932425,-0.235982164741,-0.131123289466,0.433358937502,1017.75,-37.3914146423,26.0499992371,0.0,0.0,0.0,0.0,0.0,0.0,0.0,0.0,0.0,0.0,0.0,0.0,0.0,0,0,0,0.0,0.0,,,,,,,,,,,,,,,,,,,,-0.0007914819289,0.00825235806406,0.000492274062708,0.0,0,1,0,0.931429564953,0,0,,,,,,,,,,,0.0,0.0,0.0,0.0,0.0,0.0,0.0,0.0,,,,-0.0094185359776,0.0598789565265,-1.13248815978e-05,0,0,0.0,0.0,0.300000011921,0,77,,,,,,,,,0,0.0,0.0,0.0,0.0,0,0.0,0,0.0,,,,,,,,,,,,,,,,11.5908565521,11.5971088409,-1.0,-1.0,,,,,,,,,,,,,,,,,,,,,,,,,,,,,,,,,,,,,,,,,,,,,,,,,,,,,,,,,,,,,,,,,,,,,,,,,,,,,,,,,,,,,,,,,,,,,,,,,,,,,,,4557616,PX4FMU_V1,251760679a4bed86fdb10746062fde2cc23e460f,test,305419904.0
0.00185421772767,-0.0120108295232,2.59710597992,-0.00286774709821,-0.00332317594439,-0.0030248190742,-0.0742273777723,-0.0588585659862,-9.67573547363,0.0,-0.0,2.59710597992,0.0,-0.0742273777723,-0.0588585659862,-9.67573547363,-0.00260265776888,-0.00334010203369,-0.00302858138457,-0.237816929817,-0.136948943138,0.420897454023,1017.7199707,-37.1425819397,26.0499992371,0.0,0.0,0.0,0.0,0.0,0.0,0.0,0.0,0.0,0.0,0.0,0.0,0.0,0,0,0,0.0,0.0,,,,,,,,,,,,,,,,,,,,-0.000832376303151,0.00823905784637,0.000452033098554,0.0,0,1,0,0.931429564953,0,0,,,,,,,,,,,0.0,0.0,0.0,0.0,0.0,0.0,0.0,0.0,,,,-0.00927064195275,0.0600541979074,-1.12652769531e-05,0,0,0.0,0.0,0.300000011921,0,77,,,,,,,,,0,0.0,0.0,0.0,0.0,0,0.0,0,0.0,,,,,,,,,,,,,,,,11.5908565521,11.5970954895,-1.0,-1.0,,,,,,,,,,,,,,,,,,,,,,,,,,,,,,,,,,,,,,,,,,,,,,,,,,,,,,,,,,,,,,,,,,,,,,,,,,,,,,,,,,,,,,,,,,,,,,,,,,,,,,,4578821,PX4FMU_V1,251760679a4bed86fdb10746062fde2cc23e460f,test,305419904.0
0.00182455277536,-0.012055169791,2.59797215462,-0.00241014664061,-0.00366081600077,-0.00335282552987,-0.0671112313867,-0.0477797314525,-9.6787071228,0.0,-0.0,2.59797215462,0.0,-0.0671112313867,-0.0477797314525,-9.6787071228,-0.00227207061835,-0.00356972403824,-0.00360351731069,-0.236899554729,-0.136116713285,0.43602925539,1017.79998779,-37.8061218262,26.0599994659,0.0,0.0,0.0,0.0,0.0,0.0,0.0,0.0,0.0,0.0,0.0,0.0,0.0,0,0,0,0.0,0.0,,,,,,,,,,,,,,,,,,,,-0.000872582488228,0.00831176806241,0.000501278787851,0.0,0,1,0,0.931429564953,0,0,,,,,,,,,,,0.0,0.0,0.0,0.0,0.0,0.0,0.0,0.0,,,,-0.00912231951952,0.0602758675814,-1.09672537292e-05,0,0,0.0,0.0,0.300000011921,0,77,,,,,,,,,0,0.0,0.0,0.0,0.0,0,0.0,0,0.0,,,,,,,,,,,,,,,,11.5908565521,11.5970907211,-1.0,-1.0,,,,,,,,,,,,,,,,,,,,,,,,,,,,,,,,,,,,,,,,,,,,,,,,,,,,,,,,,,,,,,,,,,,,,,,,,,,,,,,,,,,,,,,,,,,,,,,,,,,,,,,4600674,PX4FMU_V1,251760679a4bed86fdb10746062fde2cc23e460f,test,305419904.0
0.0017885902198,-0.0120791876689,2.59912395477,-0.0032734174747,-0.0032311277464,-0.00262983958237,-0.065208569169,-0.0496462509036,-9.67609977722,0.0,-0.0,2.59912395477,0.0,-0.065208569169,-0.0496462509036,-9.67609977722,-0.00347263691947,-0.00327321444638,-0.00242493371479,-0.237816929817,-0.129458829761,0.435139149427,1017.75,-37.3914146423,26.0599994659,0.0,0.0,0.0,0.0,0.0,0.0,0.0,0.0,0.0,0.0,0.0,0.0,0.0,0,0,0,0.0,0.0,,,,,,,,,,,,,,,,,,,,-0.000736982619856,0.00827152188867,0.000392844289308,0.0,0,1,0,0.931429564953,0,0,,,,,,,,,,,0.0,0.0,0.0,0.0,0.0,0.0,0.0,0.0,,,,-0.00894251465797,0.0603959672153,-1.08778476715e-05,4,-20,-0.0374999679625,0.187499836087,0.300000011921,0,77,,,,,,,,,0,0.0,0.0,0.0,0.0,0,0.0,0,0.0,,,,,,,,,,,,,,,,11.5992383957,11.5970926285,-1.0,-1.0,,,,,,,,,,,,,,,,,,,,,,,,,,,,,,,,,,,,,,,,,,,,,,,,,,,,,,,,,,,,,,,,,,,,,,,,,,,,,,,,,,,,,,,,,,,,,,,,,,,,,,,4621238,PX4FMU_V1,251760679a4bed86fdb10746062fde2cc23e460f,test,305419904.0
0.00177236588206,-0.0121179958805,2.59958791733,-0.00204828404821,-0.00364905130118,-0.00284458207898,-0.0880711823702,-0.0660515427589,-9.67910385132,0.0,-0.0,2.59958791733,0.0,-0.0880711823702,-0.0660515427589,-9.67910385132,-0.00147647655103,-0.00375978276134,-0.00276926974766,-0.239651694894,-0.132787778974,0.434249043465,1017.75,-37.3914146423,26.0599994659,0.0,0.0,0.0,0.0,0.0,0.0,0.0,0.0,0.0,0.0,0.0,0.0,0.0,0,0,0,0.0,0.0,,,,,,,,,,,,,,,,,,,,-0.000885704706889,0.00835107918829,0.0004250780039,0.0,0,1,0,0.931429564953,0,0,,,,,,,,,,,0.0,0.0,0.0,0.0,0.0,0.0,0.0,0.0,,,,-0.00886139739305,0.0605900213122,-1.07288369691e-05,0,0,0.0,0.0,0.300000011921,0,77,,,,,,,,,0,0.0,0.0,0.0,0.0,0,0.0,0,0.0,,,,,,,,,,,,,,,,11.5908565521,11.597079277,-1.0,-1.0,,,,,,,,,,,,,,,,,,,,,,,,,,,,,,,,,,,,,,,,,,,,,,,,,,,,,,,,,,,,,,,,,,,,,,,,,,,,,,,,,,,,,,,,,,,,,,,,,,,,,,,4642733,PX4FMU_V1,251760679a4bed86fdb10746062fde2cc23e460f,test,305419904.0
0.00175338995177,-0.0121616572142,2.60074067116,-0.00255038961768,-0.00321947946213,-0.00329600134864,-0.0654491558671,-0.0541781000793,-9.68002891541,0.0,-0.0,2.60074067116,0.0,-0.0654491558671,-0.0541781000793,-9.68002891541,-0.00285321590491,-0.00372307095677,-0.00318688107654,-0.238734319806,-0.133620008826,0.427128195763,1017.80999756,-37.8890609741,26.0599994659,0.0,0.0,0.0,0.0,0.0,0.0,0.0,0.0,0.0,0.0,0.0,0.0,0.0,0,0,0,0.0,0.0,,,,,,,,,,,,,,,,,,,,-0.000808096898254,0.00832361355424,0.000492790888529,0.0,0,1,0,0.931429564953,0,0,,,,,,,,,,,0.0,0.0,0.0,0.0,0.0,0.0,0.0,0.0,,,,-0.00876651983708,0.0608083195984,-1.07288369691e-05,0,0,0.0,0.0,0.300000011921,0,77,,,,,,,,,0,0.0,0.0,0.0,0.0,0,0.0,0,0.0,,,,,,,,,,,,,,,,11.5908565521,11.5970659256,-1.0,-1.0,,,,,,,,,,,,,,,,,,,,,,,,,,,,,,,,,,,,,,,,,,,,,,,,,,,,,,,,,,,,,,,,,,,,,,,,,,,,,,,,,,,,,,,,,,,,,,,,,,,,,,,4664965,PX4FMU_V1,251760679a4bed86fdb10746062fde2cc23e460f,test,305419904.0
