ATT_Roll,ATT_Pitch,ATT_Yaw,ATT_RollRate,ATT_PitchRate,ATT_YawRate,ATT_GX,ATT_GY,ATT_GZ,ATSP_RollSP,ATSP_PitchSP,ATSP_YawSP,ATSP_ThrustSP,IMU_AccX,IMU_AccY,IMU_AccZ,IMU_GyroX,IMU_GyroY,IMU_GyroZ,IMU_MagX,IMU_MagY,IMU_MagZ,SENS_BaroPres,SENS_BaroAlt,SENS_BaroTemp,SENS_DiffPres,SENS_DiffPresFilt,LPOS_X,LPOS_Y,LPOS_Z,LPOS_Dist,LPOS_DistR,LPOS_VX,LPOS_VY,LPOS_VZ,LPOS_RLat,LPOS_RLon,LPOS_RAlt,LPOS_PFlg,LPOS_LFlg,LPOS_GFlg,LPOS_EPH,LPOS_EPV,LPSP_X,LPSP_Y,LPSP_Z,LPSP_Yaw,GPS_GPSTime,GPS_Fix,GPS_EPH,GPS_EPV,GPS_Lat,GPS_Lon,GPS_Alt,GPS_VelN,GPS_VelE,GPS_VelD,GPS_Cog,GPS_nSat,GPS_SNR,GPS_N,GPS_J,ATTC_Roll,ATTC_Pitch,ATTC_Yaw,ATTC_Thrust,STAT_MainState,STAT_ArmState,STAT_FailsafeState,STAT_BatRem,STAT_BatWarn,STAT_Landed,RC_Ch0,RC_Ch1,RC_Ch2,RC_Ch3,RC_Ch4,RC_Ch5,RC_Ch6,RC_Ch7,RC_Count,RC_SignalLost,OUT0_Out0,OUT0_Out1,OUT0_Out2,OUT0_Out3,OUT0_Out4,OUT0_Out5,OUT0_Out6,OUT0_Out7,AIRS_IndSpeed,AIRS_TrueSpeed,AIRS_AirTemp,ARSP_RollRateSP,ARSP_PitchRateSP,ARSP_YawRateSP,FLOW_RawX,FLOW_RawY,FLOW_CompX,FLOW_CompY,FLOW_Dist,FLOW_Q,FLOW_SensID,GPOS_Lat,GPOS_Lon,GPOS_Alt,GPOS_VelN,GPOS_VelE,GPOS_VelD,GPOS_EPH,GPOS_EPV,GPSP_NavState,GPSP_Lat,GPSP_Lon,GPSP_Alt,GPSP_Yaw,GPSP_Type,GPSP_LoitR,GPSP_LoitDir,GPSP_PitMin,ESC_count,ESC_nESC,ESC_Conn,ESC_N,ESC_Ver,ESC_Adr,ESC_Volt,ESC_Amp,ESC_RPM,ESC_Temp,ESC_SetP,ESC_SetPRAW,GVSP_VX,GVSP_VY,GVSP_VZ,BATT_V,BATT_VFilt,BATT_C,BATT_Discharged,DIST_Bottom,DIST_BottomRate,DIST_Flags,TELE_RSSI,TELE_RemRSSI,TELE_Noise,TELE_RemNoise,TELE_RXErr,TELE_Fixed,TELE_TXBuf,ESTM_s0,ESTM_s1,ESTM_s2,ESTM_s3,ESTM_s4,ESTM_s5,ESTM_s6,ESTM_s7,ESTM_s8,ESTM_s9,ESTM_nStat,ESTM_statNaN,ESTM_covNaN,ESTM_kGainNaN,PWR_Periph5V,PWR_Servo5V,PWR_RSSI,PWR_UsbOk,PWR_BrickOk,PWR_ServoOk,PWR_PeriphOC,PWR_HipwrOC,VICN_X,VICN_Y,VICN_Z,VICN_Roll,VICN_Pitch,VICN_Yaw,GS0A_s0,GS0A_s1,GS0A_s2,GS0A_s3,GS0A_s4,GS0A_s5,GS0A_s6,GS0A_s7,GS0A_s8,GS0A_s9,GS0A_s10,GS0A_s11,GS0A_s12,GS0A_s13,GS0A_s14,GS0A_s15,GS0B_s0,GS0B_s1,GS0B_s2,GS0B_s3,GS0B_s4,GS0B_s5,GS0B_s6,GS0B_s7,GS0B_s8,GS0B_s9,GS0B_s10,GS0B_s11,GS0B_s12,GS0B_s13,GS0B_s14,GS0B_s15,GS1A_s0,GS1A_s1,GS1A_s2,GS1A_s3,GS1A_s4,GS1A_s5,GS1A_s6,GS1A_s7,GS1A_s8,GS1A_s9,GS1A_s10,GS1A_s11,GS1A_s12,GS1A_s13,GS1A_s14,GS1A_s15,GS1B_s0,GS1B_s1,GS1B_s2,GS1B_s3,GS1B_s4,GS1B_s5,GS1B_s6,GS1B_s7,GS1B_s8,GS1B_s9,GS1B_s10,GS1B_s11,GS1B_s12,GS1B_s13,GS1B_s14,GS1B_s15,TIME_StartTime,VER_Arch,VER_FwGit,PARM_Name,PARM_Value
,,,,,,,,,,,,,,,,,,,,,,,,,,,,,,,,,,,,,,,,,,,,,,,,,,,,,,,,,,,,,,,,,,,,,,,,,,,,,,,,,,,,,,,,,,,,,,,,,,,,,,,,,,,,,,,,,,,,,,,,,,,,,,,,,,,,,,,,,,,,,,,,,,,,,,,,,,,,,,,,,,,,,,,,,,,,,,,,,,,,,,,,,,,,,,,,,,,,,,,,,,,,,,,,,,,,,,,,,,,,,,,,,,,,,,,,,,,,,,,,,,PX4FMU_V1,251760679a4bed86fdb10746062fde2cc23e460f,test,305419904.0
,,,,,,,,,,,,,,,,,,,,,,,,,,,,,,,,,,,,,,,,,,,,,,,,,,,,,,,,,,,,,,,,,,0,1,0,0.0,0,0,,,,,,,,,,,,,,,,,,,,,,,,,,,,,,,,,,,,,,,,,,,,,,,,,,,,,,,,,,,,,,,,,,,,,,,,,,,,,,,,,,,,,,,,,,,,,,,,,,,,,,,,,,,,,,,,,,,,,,,,,,,,,,,,,,,,,,,,,,,,,,,,,,,,,,,,,,,,,,,,,,,,,,,,,,900235,PX4FMU_V1,251760679a4bed86fdb10746062fde2cc23e460f,test,305419904.0
,,,,,,,,,,,,,-0.556609213352,-0.882287859917,10.2477283478,-0.0185220334679,0.06001727283,-0.0335963889956,0.16858252883,0.0111888535321,-0.265374600887,1017.29998779,-33.6583023071,27.9699993134,0.0,0.0,,,,,,,,,,,,,,,,,,,,,,,,,,,,,,,,,,,,,,,,0,1,0,0.0,0,0,,,,,,,,,,,,,,,,,,,,,,,,,,,,,,,,,,,,,,,,,,,,,,,,,,,,,,,,,,,,,,,,11.3980951309,11.3980951309,-1.0,-1.0,,,,,,,,,,,,,,,,,,,,,,,,,,,,,,,,,,,,,,,,,,,,,,,,,,,,,,,,,,,,,,,,,,,,,,,,,,,,,,,,,,,,,,,,,,,,,,,,,,,,,,,1029993,PX4FMU_V1,251760679a4bed86fdb10746062fde2cc23e460f,test,305419904.0
,,,,,,,,,,,,,-0.524353921413,-0.717141628265,9.93838787079,-0.00174711504951,-0.00242888904177,0.0111546851695,0.16858252883,0.00952438358217,-0.263594388962,1017.29998779,-33.6583023071,27.9699993134,0.0,0.0,,,,,,,,,,,,,,,,,,,,,,,,,,,,,,,,,,,,,,,,0,1,0,0.0,0,0,,,,,,,,,,,,,,,,,,,,,,,,,,,,,,,,,,,,,,,,,,,,,,,,,,,,,,,,,,,,,,,,11.4064760208,11.3981122971,-1.0,-1.0,,,,,,,,,,,,,,,,,,,,,,,,,,,,,,,,,,,,,,,,,,,,,,,,,,,,,,,,,,,,,,,,,,,,,,,,,,,,,,,,,,,,,,,,,,,,,,,,,,,,,,,1060937,PX4FMU_V1,251760679a4bed86fdb10746062fde2cc23e460f,test,305419904.0
3.06788063049,-0.0511654019356,-0.0538077801466,-0.00179455103353,-0.00152825342957,0.0105130216107,-0.537574648857,-0.724032402039,9.93766593933,0.0,0.0,-0.0538077801466,0.0,-0.537574648857,-0.724032402039,9.93766593933,-0.00150061189197,-0.00171687046532,0.0111653786153,0.169499918818,0.00785991363227,-0.268044888973,1017.48999023,-35.2346687317,28.2299995422,0.0,0.0,0.0,0.0,0.0,0.0,0.0,0.0,0.0,0.0,0.0,0.0,0.0,0,0,0,0.0,0.0,,,,,,,,,,,,,,,,,,,,1.96468186378,0.0111433183774,0.00863986741751,0.0,0,1,0,0.0,0,0,0.0,-0.0,0.0,0.0198019798845,0.99816006422,0.656641602516,-0.998161792755,0.0,7,0,,,,,,,,,,,,15.1111431122,0.0841895788908,0.0681121349335,,,,,,,,,,,,,,,,0,0.0,0.0,0.0,0.0,0,0.0,0,0.0,,,,,,,,,,,,,,,,11.4064760208,11.3981895447,-1.0,-1.0,,,,,,,,,,,,,,,,,,,,,,,,,,,,,,,,,,,,,,,,,,,,,,,,,,,,,,,,,,,,,,,,,,,,,,,,,,,,,,,,,,,,,,,,,,,,,,,,,,,,,,,1272341,PX4FMU_V1,251760679a4bed86fdb10746062fde2cc23e460f,test,305419904.0
3.06786727905,-0.0511961132288,-0.0554856173694,-0.00244315713644,-0.00180583097972,0.0105186449364,-0.522117614746,-0.731087207794,9.95897197723,0.0,0.0,-0.0554856173694,0.0,-0.522117614746,-0.731087207794,9.95897197723,-0.00272818049416,-0.00202730344608,0.0102926343679,0.167665153742,0.00869214907289,-0.268044888973,1017.61999512,-36.3130989075,28.2899990082,0.0,0.0,0.0,0.0,0.0,0.0,0.0,0.0,0.0,0.0,0.0,0.0,0.0,0,0,0,0.0,0.0,,,,,,,,,,,,,,,,,,,,1.96474063396,0.0111718289554,0.008644442074,0.0,0,1,0,0.0,0,0,0.0,-0.0,0.0,0.0222772285342,0.99816006422,0.656641602516,-0.998161792755,0.0,7,0,,,,,,,,,,,,15.1109466553,0.0841313153505,0.0681482553482,,,,,,,,,,,,,,,,0,0.0,0.0,0.0,0.0,0,0.0,0,0.0,,,,,,,,,,,,,,,,11.4064760208,11.3981981277,-1.0,-1.0,,,,,,,,,,,,,,,,,,,,,,,,,,,,,,,,,,,,,,,,,,,,,,,,,,,,,,,,,,,,,,,,,,,,,,,,,,,,,,,,,,,,,,,,,,,,,,,,,,,,,,,1292810,PX4FMU_V1,251760679a4bed86fdb10746062fde2cc23e460f,test,305419904.0
3.06782960892,-0.0512759461999,-0.0547714009881,-0.00283509050496,-0.00200574961491,0.0105433017015,-0.534317612648,-0.721930503845,9.96837425232,0.0,0.0,-0.0547714009881,0.0,-0.534317612648,-0.721930503845,9.96837425232,-0.00277255056426,-0.00208893581294,0.0106815639883,0.170417279005,0.0128533225507,-0.26626470685,1017.47998047,-35.1517066956,28.2899990082,0.0,0.0,0.0,0.0,0.0,0.0,0.0,0.0,0.0,0.0,0.0,0.0,0.0,0,0,0,0.0,0.0,,,,,,,,,,,,,,,,,,,,1.9647206068,0.0112508479506,0.00865473784506,0.0,0,1,0,0.0,0,0,0.0,-0.0,0.0,0.0198019798845,1.0,0.656641602516,-0.998161792755,0.0,7,0,,,,,,,,,,,,15.1104011536,0.0845392420888,0.0682415515184,,,,,,,,,,,,,,,,0,0.0,0.0,0.0,0.0,0,0.0,0,0.0,,,,,,,,,,,,,,,,11.4064760208,11.3982152939,-1.0,-1.0,,,,,,,,,,,,,,,,,,,,,,,,,,,,,,,,,,,,,,,,,,,,,,,,,,,,,,,,,,,,,,,,,,,,,,,,,,,,,,,,,,,,,,,,,,,,,,,,,,,,,,,1315410,PX4FMU_V1,251760679a4bed86fdb10746062fde2cc23e460f,test,305419904.0
3.06779909134,-0.0513289645314,-0.0545687414706,-0.00288254139014,-0.00194412551355,0.0117699522525,-0.535271763802,-0.735897600651,9.95661449432,0.0,0.0,-0.0545687414706,0.0,-0.535271763802,-0.735897600651,9.95661449432,-0.00309735513292,-0.00161560310517,0.0118955541402,0.16858252883,0.0111888535321,-0.264484494925,1017.63995361,-36.4790000916,28.359998703,0.0,0.0,0.0,0.0,0.0,0.0,0.0,0.0,0.0,0.0,0.0,0.0,0.0,0,0,0,0.0,0.0,,,,,,,,,,,,,,,,,,,,1.96467244625,0.0112577341497,0.00848008226603,0.0,0,1,0,0.0,0,0,0.0,-0.0,0.0,0.0198019798845,1.0,0.656641602516,-0.998161792755,0.0,7,0,,,,,,,,,,,,15.1099824905,0.0846538320184,0.0683038309216,,,,,,,,,,,,,,,,0,0.0,0.0,0.0,0.0,0,0.0,0,0.0,,,,,,,,,,,,,,,,11.4064760208,11.398223877,-1.0,-1.0,,,,,,,,,,,,,,,,,,,,,,,,,,,,,,,,,,,,,,,,,,,,,,,,,,,,,,,,,,,,,,,,,,,,,,,,,,,,,,,,,,,,,,,,,,,,,,,,,,,,,,,1336049,PX4FMU_V1,251760679a4bed86fdb10746062fde2cc23e460f,test,305419904.0
3.06778407097,-0.051349028945,-0.054501388222,-0.00271203205921,-0.00226533622481,0.0107909291983,-0.516315340996,-0.725333213806,9.94546222687,0.0,0.0,-0.054501388222,0.0,-0.516315340996,-0.725333213806,9.94546222687,-0.00254133017734,-0.0023448865395,0.0106934001669,0.164913013577,0.0120210880414,-0.26626470685,1017.59997559,-36.1471939087,28.359998703,0.0,0.0,0.0,0.0,0.0,0.0,0.0,0.0,0.0,0.0,0.0,0.0,0.0,0,0,0,0.0,0.0,,,,,,,,,,,,,,,,,,,,1.96462595463,0.0112739736214,0.00863074790686,0.0,0,1,0,0.0,0,0,0.0,-0.0,0.0,0.0198019798845,1.0,0.656641602516,-0.998161792755,0.0,7,0,,,,,,,,,,,,15.1097955704,0.0844575464725,0.0683292448521,,,,,,,,,,,,,,,,0,0.0,0.0,0.0,0.0,0,0.0,0,0.0,,,,,,,,,,,,,,,,11.4064760208,11.3982486725,-1.0,-1.0,,,,,,,,,,,,,,,,,,,,,,,,,,,,,,,,,,,,,,,,,,,,,,,,,,,,,,,,,,,,,,,,,,,,,,,,,,,,,,,,,,,,,,,,,,,,,,,,,,,,,,,1357304,PX4FMU_V1,251760679a4bed86fdb10746062fde2cc23e460f,test,305419904.0
3.06774330139,-0.0513578765094,-0.0535814389586,-0.00267053674906,-0.00223320908844,0.0112011702731,-0.524932742119,-0.73446893692,9.95423316956,0.0,0.0,-0.0535814389586,0.0,-0.524932742119,-0.73446893692,9.95423316956,-0.00283162016422,-0.00242230063304,0.0112792961299,0.167665153742,0.0136855570599,-0.26626470685,1017.53997803,-35.6494636536,28.359998703,0.0,0.0,0.0,0.0,0.0,0.0,0.0,0.0,0.0,0.0,0.0,0.0,0.0,0,0,0,0.0,0.0,,,,,,,,,,,,,,,,,,,,1.9645678997,0.0113219376653,0.00856991391629,0.0,0,1,0,0.0,0,0,0.0,-0.0,0.0,0.0198019798845,1.0,0.656641602516,-0.998161792755,0.0,7,0,,,,,,,,,,,,15.1093912125,0.0848586261272,0.0683339238167,,,,,,,,,,,,,,,,0,0.0,0.0,0.0,0.0,0,0.0,0,0.0,,,,,,,,,,,,,,,,11.4064760208,11.3982658386,-1.0,-1.0,,,,,,,,,,,,,,,,,,,,,,,,,,,,,,,,,,,,,,,,,,,,,,,,,,,,,,,,,,,,,,,,,,,,,,,,,,,,,,,,,,,,,,,,,,,,,,,,,,,,,,,1379247,PX4FMU_V1,251760679a4bed86fdb10746062fde2cc23e460f,test,305419904.0
3.06769776344,-0.0513719134033,-0.0528565086424,-0.003033117624,-0.00259791547433,0.0106970164925,-0.534722805023,-0.73491114378,9.95626926422,0.0,0.0,-0.0528565086424,0.0,-0.534722805023,-0.73491114378,9.95626926422,-0.00312986085191,-0.00242567248642,0.0102878138423,0.171334668994,0.0120210880414,-0.26715478301,1017.59997559,-36.1471939087,28.4200000763,0.0,0.0,0.0,0.0,0.0,0.0,0.0,0.0,0.0,0.0,0.0,0.0,0.0,0,0,0,0.0,0.0,,,,,,,,,,,,,,,,,,,,1.96455287933,0.0113136172295,0.00864718481898,0.0,0,1,0,0.0,0,0,0.0,-0.0,0.0,0.0198019798845,1.0,0.654135346413,-0.996323525906,0.0,7,0,,,,,,,,,,,,15.1089134216,0.0844299122691,0.0683449134231,,,,,,,,,,,,,,,,0,0.0,0.0,0.0,0.0,0,0.0,0,0.0,,,,,,,,,,,,,,,,11.4064760208,11.3982830048,-1.0,-1.0,,,,,,,,,,,,,,,,,,,,,,,,,,,,,,,,,,,,,,,,,,,,,,,,,,,,,,,,,,,,,,,,,,,,,,,,,,,,,,,,,,,,,,,,,,,,,,,,,,,,,,,1400360,PX4FMU_V1,251760679a4bed86fdb10746062fde2cc23e460f,test,305419904.0
3.06763291359,-0.0513781271875,-0.0526697412133,-0.00260550505482,-0.00208821101114,0.0104012610391,-0.525251865387,-0.742047011852,9.96436405182,0.0,0.0,-0.0526697412133,0.0,-0.525251865387,-0.742047011852,9.96436405182,-0.00252741761506,-0.00213806563988,0.0106091089547,0.170417279005,0.0128533225507,-0.26626470685,1017.55999756,-35.8153762817,28.4200000763,0.0,0.0,0.0,0.0,0.0,0.0,0.0,0.0,0.0,0.0,0.0,0.0,0.0,0,0,0,0.0,0.0,,,,,,,,,,,,,,,,,,,,1.96441650391,0.0113012893125,0.00869194697589,0.0,0,1,0,0.0,0,0,0.0,-0.0,0.0,0.0198019798845,1.0,0.654135346413,-0.996323525906,0.0,7,0,,,,,,,,,,,,15.108291626,0.0848447829485,0.0683475732803,,,,,,,,,,,,,,,,0,0.0,0.0,0.0,0.0,0,0.0,0,0.0,,,,,,,,,,,,,,,,11.4064760208,11.3982915878,-1.0,-1.0,,,,,,,,,,,,,,,,,,,,,,,,,,,,,,,,,,,,,,,,,,,,,,,,,,,,,,,,,,,,,,,,,,,,,,,,,,,,,,,,,,,,,,,,,,,,,,,,,,,,,,,1421503,PX4FMU_V1,251760679a4bed86fdb10746062fde2cc23e460f,test,305419904.0
3.06759858131,-0.0514223463833,-0.0525243021548,-0.0025498198811,-0.00171211082488,0.0106585826725,-0.539574623108,-0.733796954155,9.96507263184,0.0,0.0,-0.0525243021548,0.0,-0.539574623108,-0.733796954155,9.96507263184,-0.00253848591819,-0.00176904338878,0.0106689091772,0.16858252883,0.0103566180915,-0.26715478301,1017.65997314,-36.6448974609,28.4699993134,0.0,0.0,0.0,0.0,0.0,0.0,0.0,0.0,0.0,0.0,0.0,0.0,0.0,0,0,0,0.0,0.0,,,,,,,,,,,,,,,,,,,,1.96435403824,0.0112653886899,0.00866087898612,0.0,0,1,0,0.0,0,0,0.0,-0.0,0.0,0.0198019798845,0.99816006422,0.656641602516,-0.998161792755,0.0,7,0,,,,,,,,,,,,15.1078662872,0.0849447250366,0.0683977752924,,,,,,,,,,,,,,,,0,0.0,0.0,0.0,0.0,0,0.0,0,0.0,,,,,,,,,,,,,,,,11.3980951309,11.3983001709,-1.0,-1.0,,,,,,,,,,,,,,,,,,,,,,,,,,,,,,,,,,,,,,,,,,,,,,,,,,,,,,,,,,,,,,,,,,,,,,,,,,,,,,,,,,,,,,,,,,,,,,,,,,,,,,,1443627,PX4FMU_V1,251760679a4bed86fdb10746062fde2cc23e460f,test,305419904.0
3.06757354736,-0.0514594763517,-0.0528782196343,-0.00344280269928,-0.00250050937757,0.0104047209024,-0.534162402153,-0.729142665863,9.93800354004,0.0,0.0,-0.0528782196343,0.0,-0.534162402153,-0.729142665863,9.93800354004,-0.00333131523803,-0.00288887368515,0.0104375975206,0.170417279005,0.0111888535321,-0.265374600887,1017.58996582,-36.064239502,28.4699993134,0.0,0.0,0.0,0.0,0.0,0.0,0.0,0.0,0.0,0.0,0.0,0.0,0.0,0,0,0,0.0,0.0,,,,,,,,,,,,,,,,,,,,1.964427948,0.0113941542804,0.00870558153838,0.0,0,1,0,0.0,0,0,0.0,-0.0,0.0,0.0198019798845,0.99816006422,0.656641602516,-0.998161792755,0.0,7,0,,,,,,,,,,,,15.107542038,0.0851468294859,0.068441927433,,,,,,,,,,,,,,,,0,0.0,0.0,0.0,0.0,0,0.0,0,0.0,,,,,,,,,,,,,,,,11.3980951309,11.398308754,-1.0,-1.0,,,,,,,,,,,,,,,,,,,,,,,,,,,,,,,,,,,,,,,,,,,,,,,,,,,,,,,,,,,,,,,,,,,,,,,,,,,,,,,,,,,,,,,,,,,,,,,,,,,,,,,1464739,PX4FMU_V1,251760679a4bed86fdb10746062fde2cc23e460f,test,305419904.0
3.06756210327,-0.0514885783195,-0.0526993982494,-0.00223105074838,-0.00148878677282,0.0111375693232,-0.529766857624,-0.729188501835,9.95939064026,0.0,0.0,-0.0526993982494,0.0,-0.529766857624,-0.729188501835,9.95939064026,-0.00243455916643,-0.00118715874851,0.0110786445439,0.166747763753,0.0128533225507,-0.265374600887,1017.58996582,-36.064239502,28.4699993134,0.0,0.0,0.0,0.0,0.0,0.0,0.0,0.0,0.0,0.0,0.0,0.0,0.0,0,0,0,0.0,0.0,,,,,,,,,,,,,,,,,,,,1.96424686909,0.0112392231822,0.00860084779561,0.0,0,1,0,0.0,0,0,0.0,-0.0,0.0,0.0198019798845,1.0,0.656641602516,-0.998161792755,0.0,7,0,,,,,,,,,,,,15.1073608398,0.0849667787552,0.068476550281,,,,,,,,,,,,,,,,0,0.0,0.0,0.0,0.0,0,0.0,0,0.0,,,,,,,,,,,,,,,,11.4064760208,11.3983259201,-1.0,-1.0,,,,,,,,,,,,,,,,,,,,,,,,,,,,,,,,,,,,,,,,,,,,,,,,,,,,,,,,,,,,,,,,,,,,,,,,,,,,,,,,,,,,,,,,,,,,,,,,,,,,,,,1487075,PX4FMU_V1,251760679a4bed86fdb10746062fde2cc23e460f,test,305419904.0
3.06752276421,-0.0515430942178,-0.0529401563108,-0.00243020360358,-0.00184666889254,0.00990588031709,-0.542349100113,-0.739332199097,9.94716739655,0.0,0.0,-0.0529401563108,0.0,-0.542349100113,-0.739332199097,9.94716739655,-0.00256536132656,-0.00210313824937,0.00974412634969,0.170417279005,0.0111888535321,-0.264484494925,1017.66998291,-36.727848053,28.5100002289,0.0,0.0,0.0,0.0,0.0,0.0,0.0,0.0,0.0,0.0,0.0,0.0,0.0,0,0,0,0.0,0.0,,,,,,,,,,,,,,,,,,,,1.96420824528,0.0113482316956,0.00879509095103,0.0,0,1,0,0.0,0,0,0.0,-0.0,0.0,0.0222772285342,0.99816006422,0.656641602516,-0.998161792755,0.0,7,0,,,,,,,,,,,,15.1068649292,0.0854474231601,0.0685398206115,,,,,,,,,,,,,,,,0,0.0,0.0,0.0,0.0,0,0.0,0,0.0,,,,,,,,,,,,,,,,11.4064760208,11.3983430862,-1.0,-1.0,,,,,,,,,,,,,,,,,,,,,,,,,,,,,,,,,,,,,,,,,,,,,,,,,,,,,,,,,,,,,,,,,,,,,,,,,,,,,,,,,,,,,,,,,,,,,,,,,,,,,,,1507985,PX4FMU_V1,251760679a4bed86fdb10746062fde2cc23e460f,test,305419904.0
3.06749486923,-0.0515378378332,-0.0525276884437,-0.00229666824453,-0.00097675062716,0.0106084309518,-0.520879507065,-0.742172837257,9.95757293701,0.0,0.0,-0.0525276884437,0.0,-0.520879507065,-0.742172837257,9.95757293701,-0.00220506452024,-0.000742741278373,0.0106912069023,0.170417279005,0.0128533225507,-0.264484494925,1017.63995361,-36.4790000916,28.5100002289,0.0,0.0,0.0,0.0,0.0,0.0,0.0,0.0,0.0,0.0,0.0,0.0,0.0,0,0,0,0.0,0.0,,,,,,,,,,,,,,,,,,,,1.96415901184,0.0112205585465,0.00868804007769,0.0,0,1,0,0.0,0,0,0.0,-0.0,0.0,0.0222772285342,0.99816006422,0.656641602516,-0.998161792755,0.0,7,0,,,,,,,,,,,,15.1066198349,0.085335239768,0.0685286968946,,,,,,,,,,,,,,,,0,0.0,0.0,0.0,0.0,0,0.0,0,0.0,,,,,,,,,,,,,,,,11.4064760208,11.3983516693,-1.0,-1.0,,,,,,,,,,,,,,,,,,,,,,,,,,,,,,,,,,,,,,,,,,,,,,,,,,,,,,,,,,,,,,,,,,,,,,,,,,,,,,,,,,,,,,,,,,,,,,,,,,,,,,,1529204,PX4FMU_V1,251760679a4bed86fdb10746062fde2cc23e460f,test,305419904.0
3.06744360924,-0.0515936166048,-0.0545356236398,-0.00273131020367,-0.00136948376894,0.0105335973203,-0.537136614323,-0.713895440102,9.95367240906,0.0,0.0,-0.0545356236398,0.0,-0.537136614323,-0.713895440102,9.95367240906,-0.0027387093287,-0.00172333105002,0.0109619479626,0.165830373764,0.00286650471389,-0.268044888973,1017.65997314,-36.6448974609,28.5499992371,0.0,0.0,0.0,0.0,0.0,0.0,0.0,0.0,0.0,0.0,0.0,0.0,0.0,0,0,0,0.0,0.0,,,,,,,,,,,,,,,,,,,,1.96413314342,0.0112579250708,0.00870920997113,0.0,0,1,0,0.0,0,0,0.0,-0.0,0.0,0.0198019798845,1.0,0.656641602516,-0.998161792755,0.0,7,0,,,,,,,,,,,,15.1059856415,0.0852299407125,0.0685949921608,,,,,,,,,,,,,,,,0,0.0,0.0,0.0,0.0,0,0.0,0,0.0,,,,,,,,,,,,,,,,11.3980951309,11.3983602524,-1.0,-1.0,,,,,,,,,,,,,,,,,,,,,,,,,,,,,,,,,,,,,,,,,,,,,,,,,,,,,,,,,,,,,,,,,,,,,,,,,,,,,,,,,,,,,,,,,,,,,,,,,,,,,,,1550957,PX4FMU_V1,251760679a4bed86fdb10746062fde2cc23e460f,test,305419904.0
3.06741476059,-0.0516474768519,-0.0581889040768,-0.00288519938476,-0.00185723567847,0.0107341082767,-0.541068732738,-0.74302059412,9.95067024231,0.0,0.0,-0.0581889040768,0.0,-0.541068732738,-0.74302059412,9.95067024231,-0.00321742193773,-0.0017491823528,0.0102343568578,0.166747763753,0.00702767865732,-0.268934994936,1017.63995361,-36.4790000916,28.5499992371,0.0,0.0,0.0,0.0,0.0,0.0,0.0,0.0,0.0,0.0,0.0,0.0,0.0,0,0,0,0.0,0.0,,,,,,,,,,,,,,,,,,,,1.96410191059,0.0113672297448,0.00868790596724,0.0,0,1,0,0.0,0,0,0.0,-0.0,0.0,0.0198019798845,1.0,0.656641602516,-0.998161792755,0.0,7,0,,,,,,,,,,,,15.105591774,0.0855829939246,0.0686534792185,,,,,,,,,,,,,,,,0,0.0,0.0,0.0,0.0,0,0.0,0,0.0,,,,,,,,,,,,,,,,11.4064760208,11.3983774185,-1.0,-1.0,,,,,,,,,,,,,,,,,,,,,,,,,,,,,,,,,,,,,,,,,,,,,,,,,,,,,,,,,,,,,,,,,,,,,,,,,,,,,,,,,,,,,,,,,,,,,,,,,,,,,,,1571457,PX4FMU_V1,251760679a4bed86fdb10746062fde2cc23e460f,test,305419904.0
3.06737732887,-0.0516620837152,-0.0586523599923,-0.00239941943437,-0.00185929285362,0.010317989625,-0.527139484882,-0.724377691746,9.95223045349,0.0,0.0,-0.0586523599923,0.0,-0.527139484882,-0.724377691746,9.95223045349,-0.00236344849691,-0.00181481614709,0.0106846224517,0.16858252883,0.0111888535321,-0.268044888973,1017.72998047,-37.2255249023,28.5799999237,0.0,0.0,0.0,0.0,0.0,0.0,0.0,0.0,0.0,0.0,0.0,0.0,0.0,0,0,0,0.0,0.0,,,,,,,,,,,,,,,,,,,,1.96398937702,0.0113740162924,0.00875329226255,0.0,0,1,0,0.0,0,0,0.0,-0.0,0.0,0.0198019798845,0.99816006422,0.656641602516,-0.998161792755,0.0,7,0,,,,,,,,,,,,15.1052112579,0.0856331437826,0.0686732679605,,,,,,,,,,,,,,,,0,0.0,0.0,0.0,0.0,0,0.0,0,0.0,,,,,,,,,,,,,,,,11.4064760208,11.3983926773,-1.0,-1.0,,,,,,,,,,,,,,,,,,,,,,,,,,,,,,,,,,,,,,,,,,,,,,,,,,,,,,,,,,,,,,,,,,,,,,,,,,,,,,,,,,,,,,,,,,,,,,,,,,,,,,,1592484,PX4FMU_V1,251760679a4bed86fdb10746062fde2cc23e460f,test,305419904.0
3.06735157967,-0.0516665391624,-0.0584171377122,-0.00313287694007,-0.00224658008665,0.0101106343791,-0.517814278603,-0.741899907589,9.97721004486,0.0,0.0,-0.0584171377122,0.0,-0.517814278603,-0.741899907589,9.97721004486,-0.00339761911891,-0.00229553831741,0.0100632514805,0.171334668994,0.0128533225507,-0.26626470685,1017.67999268,-36.8107948303,28.5799999237,0.0,0.0,0.0,0.0,0.0,0.0,0.0,0.0,0.0,0.0,0.0,0.0,0.0,0,0,0,0.0,0.0,,,,,,,,,,,,,,,,,,,,1.96405017376,0.0114430477843,0.0087846647948,0.0,0,1,0,0.0,0,0,0.0,-0.0,0.0,0.0198019798845,0.99816006422,0.656641602516,-0.998161792755,0.0,7,0,,,,,,,,,,,,15.1049461365,0.0857768654823,0.0686750635505,,,,,,,,,,,,,,,,0,0.0,0.0,0.0,0.0,0,0.0,0,0.0,,,,,,,,,,,,,,,,11.4064760208,11.3984003067,-1.0,-1.0,,,,,,,,,,,,,,,,,,,,,,,,,,,,,,,,,,,,,,,,,,,,,,,,,,,,,,,,,,,,,,,,,,,,,,,,,,,,,,,,,,,,,,,,,,,,,,,,,,,,,,,1613659,PX4FMU_V1,251760679a4bed86fdb10746062fde2cc23e460f,test,305419904.0
3.0673160553,-0.0516740530729,-0.0598480179906,-0.00228444044478,-0.00279267202131,0.0101033393294,-0.545172154903,-0.730205774307,9.93510055542,0.0,0.0,-0.0598480179906,0.0,-0.545172154903,-0.730205774307,9.93510055542,-0.00211004447192,-0.00267435307615,0.0103297391906,0.169499918818,0.00120203464758,-0.26626470685,1017.65997314,-36.6448974609,28.5799999237,0.0,0.0,0.0,0.0,0.0,0.0,0.0,0.0,0.0,0.0,0.0,0.0,0.0,0,0,0,0.0,0.0,,,,,,,,,,,,,,,,,,,,1.96389472485,0.0115030715242,0.00878619588912,0.0,0,1,0,0.0,0,0,0.0,-0.0,0.0,0.0222772285342,0.99816006422,0.656641602516,-0.998161792755,0.0,7,0,,,,,,,,,,,,15.104598999,0.0856924951077,0.0686779767275,,,,,,,,,,,,,,,,0,0.0,0.0,0.0,0.0,0,0.0,0,0.0,,,,,,,,,,,,,,,,11.4064760208,11.3984241486,-1.0,-1.0,,,,,,,,,,,,,,,,,,,,,,,,,,,,,,,,,,,,,,,,,,,,,,,,,,,,,,,,,,,,,,,,,,,,,,,,,,,,,,,,,,,,,,,,,,,,,,,,,,,,,,,1635723,PX4FMU_V1,251760679a4bed86fdb10746062fde2cc23e460f,test,305419904.0
3.06729269028,-0.0516646467149,-0.0600674077868,-0.00259137526155,-0.0022320181597,0.0104764439166,-0.512567639351,-0.739641010761,9.93865585327,0.0,0.0,-0.0600674077868,0.0,-0.512567639351,-0.739641010761,9.93865585327,-0.00313419708982,-0.00210977485403,0.0103902444243,0.170417279005,0.0128533225507,-0.26626470685,1017.69995117,-36.976688385,28.5999984741,0.0,0.0,0.0,0.0,0.0,0.0,0.0,0.0,0.0,0.0,0.0,0.0,0.0,0,0,0,0.0,0.0,,,,,,,,,,,,,,,,,,,,1.96390914917,0.011475648731,0.00872826483101,0.0,0,1,0,0.0,0,0,0.0,-0.0,0.0,0.0198019798845,1.0,0.656641602516,-0.998161792755,0.0,7,0,,,,,,,,,,,,15.1044025421,0.0860422104597,0.0686648711562,,,,,,,,,,,,,,,,0,0.0,0.0,0.0,0.0,0,0.0,0,0.0,,,,,,,,,,,,,,,,11.4064760208,11.3984394073,-1.0,-1.0,,,,,,,,,,,,,,,,,,,,,,,,,,,,,,,,,,,,,,,,,,,,,,,,,,,,,,,,,,,,,,,,,,,,,,,,,,,,,,,,,,,,,,,,,,,,,,,,,,,,,,,1656849,PX4FMU_V1,251760679a4bed86fdb10746062fde2cc23e460f,test,305419904.0
3.06725645065,-0.051633939147,-0.0592881850898,-0.00270103476942,-0.00175121205393,0.0107040563598,-0.516093552113,-0.748642385006,9.98090267181,0.0,0.0,-0.0592881850898,0.0,-0.516093552113,-0.748642385006,9.98090267181,-0.00263096904382,-0.00201809988357,0.0109359882772,0.16858252883,0.0145177915692,-0.26626470685,1017.63995361,-36.4790000916,28.5999984741,0.0,0.0,0.0,0.0,0.0,0.0,0.0,0.0,0.0,0.0,0.0,0.0,0.0,0,0,0,0.0,0.0,,,,,,,,,,,,,,,,,,,,1.96388828754,0.011393471621,0.0086873229593,0.0,0,1,0,0.0,0,0,0.0,-0.0,0.0,0.0222772285342,0.99816006422,0.656641602516,-0.998161792755,0.0,7,0,,,,,,,,,,,,15.1041326523,0.0858908817172,0.0686195418239,,,,,,,,,,,,,,,,0,0.0,0.0,0.0,0.0,0,0.0,0,0.0,,,,,,,,,,,,,,,,11.4064760208,11.3984632492,-1.0,-1.0,,,,,,,,,,,,,,,,,,,,,,,,,,,,,,,,,,,,,,,,,,,,,,,,,,,,,,,,,,,,,,,,,,,,,,,,,,,,,,,,,,,,,,,,,,,,,,,,,,,,,,,1678002,PX4FMU_V1,251760679a4bed86fdb10746062fde2cc23e460f,test,305419904.0
3.06720638275,-0.0516254268587,-0.0588602684438,-0.00241346284747,-0.00209451140836,0.0102362884209,-0.537563443184,-0.743302643299,9.9517621994,0.0,0.0,-0.0588602684438,0.0,-0.537563443184,-0.743302643299,9.9517621994,-0.00245251460001,-0.00202184752561,0.00988392066211,0.171334668994,0.0145177915692,-0.262704253197,1017.72998047,-37.2255249023,28.6199989319,0.0,0.0,0.0,0.0,0.0,0.0,0.0,0.0,0.0,0.0,0.0,0.0,0.0,0,0,0,0.0,0.0,,,,,,,,,,,,,,,,,,,,1.96379113197,0.0114251412451,0.00875524058938,0.0,0,1,0,0.0,0,0,0.0,-0.0,0.0,0.0198019798845,1.0,0.656641602516,-0.998161792755,0.0,7,0,,,,,,,,,,,,15.1036720276,0.0857911929488,0.0686045587063,,,,,,,,,,,,,,,,0,0.0,0.0,0.0,0.0,0,0.0,0,0.0,,,,,,,,,,,,,,,,11.4064760208,11.3984870911,-1.0,-1.0,,,,,,,,,,,,,,,,,,,,,,,,,,,,,,,,,,,,,,,,,,,,,,,,,,,,,,,,,,,,,,,,,,,,,,,,,,,,,,,,,,,,,,,,,,,,,,,,,,,,,,,1700099,PX4FMU_V1,251760679a4bed86fdb10746062fde2cc23e460f,test,305419904.0
3.06715345383,-0.0516585893929,-0.0613396279514,-0.00302370358258,-0.00156586768571,0.0104972813278,-0.531648159027,-0.747601270676,9.94552230835,0.0,0.0,-0.0613396279514,0.0,-0.531648159027,-0.747601270676,9.94552230835,-0.00288054486737,-0.00129865529016,0.0106769138947,0.167665153742,0.00453097466379,-0.275165736675,1017.69000244,-36.8937416077,28.6199989319,0.0,0.0,0.0,0.0,0.0,0.0,0.0,0.0,0.0,0.0,0.0,0.0,0.0,0,0,0,0.0,0.0,,,,,,,,,,,,,,,,,,,,1.96379411221,0.0113837961107,0.00872144196182,0.0,0,1,0,0.0,0,0,0.0,-0.0,0.0,0.0222772285342,0.99816006422,0.656641602516,-0.998161792755,0.0,7,0,,,,,,,,,,,,15.1030845642,0.0860017985106,0.0686402246356,,,,,,,,,,,,,,,,0,0.0,0.0,0.0,0.0,0,0.0,0,0.0,,,,,,,,,,,,,,,,11.4064760208,11.3984947205,-1.0,-1.0,,,,,,,,,,,,,,,,,,,,,,,,,,,,,,,,,,,,,,,,,,,,,,,,,,,,,,,,,,,,,,,,,,,,,,,,,,,,,,,,,,,,,,,,,,,,,,,,,,,,,,,1721212,PX4FMU_V1,251760679a4bed86fdb10746062fde2cc23e460f,test,305419904.0
3.06711769104,-0.0516792349517,-0.0649112835526,-0.00210634875111,-0.00155036558863,0.0105810863897,-0.519752621651,-0.733423709869,9.96828746796,0.0,0.0,-0.0649112835526,0.0,-0.519752621651,-0.733423709869,9.96828746796,-0.00199279258959,-0.00143126805779,0.010453238152,0.16858252883,0.00369873945601,-0.277836084366,1017.69000244,-36.8937416077,28.6199989319,0.0,0.0,0.0,0.0,0.0,0.0,0.0,0.0,0.0,0.0,0.0,0.0,0.0,0,0,0,0.0,0.0,,,,,,,,,,,,,,,,,,,,1.96362602711,0.011404518038,0.00871230755001,0.0,0,1,0,0.0,0,0,0.0,-0.0,0.0,0.0198019798845,1.0,0.654135346413,-0.996323525906,0.0,7,0,,,,,,,,,,,,15.1027097702,0.0861766934395,0.0686631351709,,,,,,,,,,,,,,,,0,0.0,0.0,0.0,0.0,0,0.0,0,0.0,,,,,,,,,,,,,,,,11.4064760208,11.3985099792,-1.0,-1.0,,,,,,,,,,,,,,,,,,,,,,,,,,,,,,,,,,,,,,,,,,,,,,,,,,,,,,,,,,,,,,,,,,,,,,,,,,,,,,,,,,,,,,,,,,,,,,,,,,,,,,,1743592,PX4FMU_V1,251760679a4bed86fdb10746062fde2cc23e460f,test,305419904.0
3.06709170341,-0.0516575872898,-0.0660058259964,-0.00177965976764,-0.00133884174284,0.0095081217587,-0.518372297287,-0.741540789604,9.94315814972,0.0,0.0,-0.0660058259964,0.0,-0.518372297287,-0.741540789604,9.94315814972,-0.00200943509117,-0.00166506855749,0.00900483317673,0.169499918818,0.00369873945601,-0.272495448589,1017.70996094,-37.0596351624,28.6399993896,0.0,0.0,0.0,0.0,0.0,0.0,0.0,0.0,0.0,0.0,0.0,0.0,0.0,0,0,0,0.0,0.0,,,,,,,,,,,,,,,,,,,,1.96355879307,0.0113739930093,0.00886898767203,0.0,0,1,0,0.0,0,0,0.0,-0.0,0.0,0.0198019798845,1.0,0.654135346413,-0.996323525906,0.0,7,0,,,,,,,,,,,,15.1025190353,0.0861534178257,0.0686347037554,,,,,,,,,,,,,,,,0,0.0,0.0,0.0,0.0,0,0.0,0,0.0,,,,,,,,,,,,,,,,11.4064760208,11.398525238,-1.0,-1.0,,,,,,,,,,,,,,,,,,,,,,,,,,,,,,,,,,,,,,,,,,,,,,,,,,,,,,,,,,,,,,,,,,,,,,,,,,,,,,,,,,,,,,,,,,,,,,,,,,,,,,,1764447,PX4FMU_V1,251760679a4bed86fdb10746062fde2cc23e460f,test,305419904.0
3.06707835197,-0.0516734272242,-0.06799441576,-0.00211693206802,-0.00152296980377,0.0103981159627,-0.538243412971,-0.734635233879,9.96992015839,0.0,0.0,-0.06799441576,0.0,-0.538243412971,-0.734635233879,9.96992015839,-0.00227360799909,-0.00140926870517,0.0109876729548,0.169499918818,0.000369800021872,-0.270715236664,1017.69995117,-36.976688385,28.6399993896,0.0,0.0,0.0,0.0,0.0,0.0,0.0,0.0,0.0,0.0,0.0,0.0,0.0,0,0,0,0.0,0.0,,,,,,,,,,,,,,,,,,,,1.96358120441,0.0114176096395,0.00873765349388,0.0,0,1,0,0.0,0,0,0.0,-0.0,0.0,0.0198019798845,1.0,0.656641602516,-0.998161792755,0.0,7,0,,,,,,,,,,,,15.1023540497,0.0863047987223,0.06864913553,,,,,,,,,,,,,,,,0,0.0,0.0,0.0,0.0,0,0.0,0,0.0,,,,,,,,,,,,,,,,11.4064760208,11.3985404968,-1.0,-1.0,,,,,,,,,,,,,,,,,,,,,,,,,,,,,,,,,,,,,,,,,,,,,,,,,,,,,,,,,,,,,,,,,,,,,,,,,,,,,,,,,,,,,,,,,,,,,,,,,,,,,,,1785555,PX4FMU_V1,251760679a4bed86fdb10746062fde2cc23e460f,test,305419904.0
3.06702661514,-0.0516687706113,-0.0698380619287,-0.00269480701536,-0.0018058673013,0.0101240482181,-0.53092956543,-0.744438767433,9.96999359131,0.0,0.0,-0.0698380619287,0.0,-0.53092956543,-0.744438767433,9.96999359131,-0.00246995873749,-0.00176331435796,0.0102309305221,0.172252044082,0.00369873945601,-0.274275660515,1017.69995117,-36.976688385,28.6599998474,0.0,0.0,0.0,0.0,0.0,0.0,0.0,0.0,0.0,0.0,0.0,0.0,0.0,0,0,0,0.0,0.0,,,,,,,,,,,,,,,,,,,,1.96359288692,0.0114274732769,0.00877725798637,0.0,0,1,0,0.0,0,0,0.0,-0.0,0.0,0.0222772285342,0.99816006422,0.656641602516,-0.998161792755,0.0,7,0,,,,,,,,,,,,15.1018657684,0.0860977768898,0.0686390995979,,,,,,,,,,,,,,,,0,0.0,0.0,0.0,0.0,0,0.0,0,0.0,,,,,,,,,,,,,,,,11.3980951309,11.3985481262,-1.0,-1.0,,,,,,,,,,,,,,,,,,,,,,,,,,,,,,,,,,,,,,,,,,,,,,,,,,,,,,,,,,,,,,,,,,,,,,,,,,,,,,,,,,,,,,,,,,,,,,,,,,,,,,,1807693,PX4FMU_V1,251760679a4bed86fdb10746062fde2cc23e460f,test,305419904.0
3.06702280045,-0.0516733825207,-0.0728892013431,-0.00181910174433,-0.00200395891443,0.0102104274556,-0.531213641167,-0.722447693348,9.96357822418,0.0,0.0,-0.0728892013431,0.0,-0.531213641167,-0.722447693348,9.96357822418,-0.00211025960743,-0.0020408637356,0.0100182704628,0.16858252883,-0.00129466922954,-0.276055842638,1017.66998291,-36.727848053,28.6599998474,0.0,0.0,0.0,0.0,0.0,0.0,0.0,0.0,0.0,0.0,0.0,0.0,0.0,0,0,0,0.0,0.0,,,,,,,,,,,,,,,,,,,,1.9634732008,0.0114698233083,0.00876535475254,0.0,0,1,0,0.0,0,0,0.0,-0.0,0.0,0.0222772285342,0.99816006422,0.656641602516,-0.998161792755,0.0,7,0,,,,,,,,,,,,15.1018218994,0.0862254500389,0.0686461254954,,,,,,,,,,,,,,,,0,0.0,0.0,0.0,0.0,0,0.0,0,0.0,,,,,,,,,,,,,,,,11.4064760208,11.3985557556,-1.0,-1.0,,,,,,,,,,,,,,,,,,,,,,,,,,,,,,,,,,,,,,,,,,,,,,,,,,,,,,,,,,,,,,,,,,,,,,,,,,,,,,,,,,,,,,,,,,,,,,,,,,,,,,,1828775,PX4FMU_V1,251760679a4bed86fdb10746062fde2cc23e460f,test,305419904.0
3.06701898575,-0.0516835302114,-0.075084708631,-0.00249995477498,-0.00155036908109,0.0105537455529,-0.529036819935,-0.718898355961,9.94709968567,0.0,0.0,-0.075084708631,0.0,-0.529036819935,-0.718898355961,9.94709968567,-0.00274643674493,-0.00153012434021,0.0109579246491,0.171334668994,0.00120203464758,-0.275165736675,1017.72998047,-37.2255249023,28.6800003052,0.0,0.0,0.0,0.0,0.0,0.0,0.0,0.0,0.0,0.0,0.0,0.0,0.0,0,0,0,0.0,0.0,,,,,,,,,,,,,,,,,,,,1.96355354786,0.0113982697949,0.00871535763144,0.0,0,1,0,0.0,0,0,0.0,-0.0,0.0,0.0198019798845,0.99816006422,0.656641602516,-0.998161792755,0.0,7,0,,,,,,,,,,,,15.1017589569,0.0861286297441,0.0686561316252,,,,,,,,,,,,,,,,0,0.0,0.0,0.0,0.0,0,0.0,0,0.0,,,,,,,,,,,,,,,,11.4064760208,11.3985710144,-1.0,-1.0,,,,,,,,,,,,,,,,,,,,,,,,,,,,,,,,,,,,,,,,,,,,,,,,,,,,,,,,,,,,,,,,,,,,,,,,,,,,,,,,,,,,,,,,,,,,,,,,,,,,,,,1849944,PX4FMU_V1,251760679a4bed86fdb10746062fde2cc23e460f,test,305419904.0
3.06701922417,-0.0516689047217,-0.0755035281181,-0.00273219915107,-0.00170103705022,0.0103310616687,-0.510807394981,-0.734822034836,9.97023010254,0.0,0.0,-0.0755035281181,0.0,-0.510807394981,-0.734822034836,9.97023010254,-0.00258071627468,-0.00207848660648,0.00992539152503,0.16858252883,0.00619544414803,-0.26715478301,1017.69000244,-36.8937416077,28.6800003052,0.0,0.0,0.0,0.0,0.0,0.0,0.0,0.0,0.0,0.0,0.0,0.0,0.0,0,0,0,0.0,0.0,,,,,,,,,,,,,,,,,,,,1.96358752251,0.011368506588,0.00874642841518,0.0,0,1,0,0.0,0,0,0.0,-0.0,0.0,0.0222772285342,0.99816006422,0.656641602516,-0.998161792755,0.0,7,0,,,,,,,,,,,,15.1017875671,0.0857490226626,0.0686405822635,,,,,,,,,,,,,,,,0,0.0,0.0,0.0,0.0,0,0.0,0,0.0,,,,,,,,,,,,,,,,11.4064760208,11.3985862732,-1.0,-1.0,,,,,,,,,,,,,,,,,,,,,,,,,,,,,,,,,,,,,,,,,,,,,,,,,,,,,,,,,,,,,,,,,,,,,,,,,,,,,,,,,,,,,,,,,,,,,,,,,,,,,,,1871788,PX4FMU_V1,251760679a4bed86fdb10746062fde2cc23e460f,test,305419904.0
3.06699991226,-0.0516358651221,-0.0750572159886,-0.00241412781179,-0.00201221625321,0.0100720236078,-0.52384698391,-0.736018657684,9.97340011597,0.0,0.0,-0.0750572159886,0.0,-0.52384698391,-0.736018657684,9.97340011597,-0.00218190369196,-0.00170733209234,0.0101367840543,0.170417279005,0.0145177915692,-0.268044888973,1017.69000244,-36.8937416077,28.6800003052,0.0,0.0,0.0,0.0,0.0,0.0,0.0,0.0,0.0,0.0,0.0,0.0,0.0,0,0,0,0.0,0.0,,,,,,,,,,,,,,,,,,,,1.96353268623,0.0114027922973,0.00877896137536,0.0,0,1,0,0.0,0,0,0.0,-0.0,0.0,0.0198019798845,0.99816006422,0.656641602516,-0.998161792755,0.0,7,0,,,,,,,,,,,,15.1016845703,0.0857015773654,0.0685984268785,,,,,,,,,,,,,,,,0,0.0,0.0,0.0,0.0,0,0.0,0,0.0,,,,,,,,,,,,,,,,11.4148569107,11.3986101151,-1.0,-1.0,,,,,,,,,,,,,,,,,,,,,,,,,,,,,,,,,,,,,,,,,,,,,,,,,,,,,,,,,,,,,,,,,,,,,,,,,,,,,,,,,,,,,,,,,,,,,,,,,,,,,,,1893211,PX4FMU_V1,251760679a4bed86fdb10746062fde2cc23e460f,test,305419904.0
3.06698203087,-0.0516528747976,-0.0754396393895,-0.00203442224301,-0.00139800494071,0.0100549468771,-0.533436477184,-0.738564133644,9.95753097534,0.0,0.0,-0.0754396393895,0.0,-0.533436477184,-0.738564133644,9.95753097534,-0.00213462486863,-0.0014333036961,0.0102735087276,0.172252044082,0.00785991363227,-0.269825100899,1017.73999023,-37.3084716797,28.6899986267,0.0,0.0,0.0,0.0,0.0,0.0,0.0,0.0,0.0,0.0,0.0,0.0,0.0,0,0,0,0.0,0.0,,,,,,,,,,,,,,,,,,,,1.96345758438,0.0113892806694,0.00878388062119,0.0,0,1,0,0.0,0,0,0.0,-0.0,0.0,0.0222772285342,0.99816006422,0.656641602516,-0.998161792755,0.0,7,0,,,,,,,,,,,,15.1014862061,0.0862118527293,0.0686141476035,,,,,,,,,,,,,,,,0,0.0,0.0,0.0,0.0,0,0.0,0,0.0,,,,,,,,,,,,,,,,11.4064760208,11.3986177444,-1.0,-1.0,,,,,,,,,,,,,,,,,,,,,,,,,,,,,,,,,,,,,,,,,,,,,,,,,,,,,,,,,,,,,,,,,,,,,,,,,,,,,,,,,,,,,,,,,,,,,,,,,,,,,,,1914261,PX4FMU_V1,251760679a4bed86fdb10746062fde2cc23e460f,test,305419904.0
3.06694698334,-0.0516425780952,-0.0751479566097,-0.0021922646556,-0.00188808119856,0.0101734409109,-0.516452729702,-0.738117098808,9.95579338074,0.0,0.0,-0.0751479566097,0.0,-0.516452729702,-0.738117098808,9.95579338074,-0.00244085281156,-0.0015353593044,0.00981248449534,0.16858252883,0.0128533225507,-0.26715478301,1017.70996094,-37.0596351624,28.6899986267,0.0,0.0,0.0,0.0,0.0,0.0,0.0,0.0,0.0,0.0,0.0,0.0,0.0,0,0,0,0.0,0.0,,,,,,,,,,,,,,,,,,,,1.96343648434,0.0113766780123,0.00876391679049,0.0,0,1,0,0.0,0,0,0.0,-0.0,0.0,0.0222772285342,0.99816006422,0.656641602516,-0.998161792755,0.0,7,0,,,,,,,,,,,,15.1011657715,0.0856248289347,0.0685995519161,,,,,,,,,,,,,,,,0,0.0,0.0,0.0,0.0,0,0.0,0,0.0,,,,,,,,,,,,,,,,11.4064760208,11.3986330032,-1.0,-1.0,,,,,,,,,,,,,,,,,,,,,,,,,,,,,,,,,,,,,,,,,,,,,,,,,,,,,,,,,,,,,,,,,,,,,,,,,,,,,,,,,,,,,,,,,,,,,,,,,,,,,,,1935796,PX4FMU_V1,251760679a4bed86fdb10746062fde2cc23e460f,test,305419904.0
3.0669093132,-0.0516286529601,-0.0744239762425,-0.00294837960973,-0.00152918114327,0.0105326529592,-0.523752570152,-0.740671396255,9.94745826721,0.0,0.0,-0.0744239762425,0.0,-0.523752570152,-0.740671396255,9.94745826721,-0.00316015304998,-0.0017373978626,0.0109577132389,0.167665153742,0.0120210880414,-0.268044888973,1017.75,-37.3914146423,28.6999988556,0.0,0.0,0.0,0.0,0.0,0.0,0.0,0.0,0.0,0.0,0.0,0.0,0.0,0,0,0,0.0,0.0,,,,,,,,,,,,,,,,,,,,1.96349346638,0.0113608296961,0.00870644953102,0.0,0,1,0,0.0,0,0,0.0,-0.0,0.0,0.0222772285342,0.99816006422,0.656641602516,-0.998161792755,0.0,7,0,0.0,0.0,0.0,0.0,0.0,0.0,0.0,0.0,,,,15.1008472443,0.0858618244529,0.0685756504536,,,,,,,,,,,,,,,,0,0.0,0.0,0.0,0.0,0,0.0,0,0.0,,,,,,,,,,,,,,,,11.4148569107,11.3986654282,-1.0,-1.0,,,,,,,,,,,,,,,,,,,,,,,,,,,,,,,,,,,,,,,,,,,,,,,,,,,,,,,,,,,,,,,,,,,,,,,,,,,,,,,,,,,,,,,,,,,,,,,,,,,,,,,1956528,PX4FMU_V1,251760679a4bed86fdb10746062fde2cc23e460f,test,305419904.0
3.06685996056,-0.0516308024526,-0.0739638507366,-0.00306146382354,-0.00181584712118,0.0105581497774,-0.530612945557,-0.73623073101,9.94090652466,0.0,0.0,-0.0739638507366,0.0,-0.530612945557,-0.73623073101,9.94090652466,-0.00280331983231,-0.00180671166163,0.0103350169957,0.167665153742,0.00869214907289,-0.273385554552,1017.69000244,-36.8937416077,28.6999988556,0.0,0.0,0.0,0.0,0.0,0.0,0.0,0.0,0.0,0.0,0.0,0.0,0.0,0,0,0,0.0,0.0,,,,,,,,,,,,,,,,,,,,1.96344661713,0.011417876929,0.00870211608708,0.0,0,1,0,0.0,0,0,0.0,-0.0,0.0,0.0222772285342,0.99816006422,0.656641602516,-0.998161792755,0.0,7,0,0.0,0.0,0.0,0.0,0.0,0.0,0.0,0.0,,,,15.1003751755,0.0860139802098,0.0685722529888,,,,,,,,,,,,,,,,0,0.0,0.0,0.0,0.0,0,0.0,0,0.0,,,,,,,,,,,,,,,,11.4148569107,11.3986978531,-1.0,-1.0,,,,,,,,,,,,,,,,,,,,,,,,,,,,,,,,,,,,,,,,,,,,,,,,,,,,,,,,,,,,,,,,,,,,,,,,,,,,,,,,,,,,,,,,,,,,,,,,,,,,,,,1977638,PX4FMU_V1,251760679a4bed86fdb10746062fde2cc23e460f,test,305419904.0
3.06685853004,-0.0516484826803,-0.074077501893,-0.00209921621718,-0.00133230246138,0.0105159478262,-0.537182569504,-0.72032558918,9.96035766602,0.0,0.0,-0.074077501893,0.0,-0.537182569504,-0.72032558918,9.96035766602,-0.00202233530581,-0.00135408050846,0.0105078695342,0.16858252883,0.00952438358217,-0.271605342627,1017.69000244,-36.8937416077,28.6999988556,0.0,0.0,0.0,0.0,0.0,0.0,0.0,0.0,0.0,0.0,0.0,0.0,0.0,0,0,0,0.0,0.0,,,,,,,,,,,,,,,,,,,,1.96331322193,0.0113898459822,0.00871160719544,0.0,0,1,0,0.0,0,0,0.0,-0.0,0.0,0.0222772285342,0.99816006422,0.656641602516,-0.998161792755,0.0,7,0,0.0,0.0,0.0,0.0,0.0,0.0,0.0,0.0,,,,15.1003112793,0.0862818956375,0.0685933232307,,,,,,,,,,,,,,,,0,0.0,0.0,0.0,0.0,0,0.0,0,0.0,,,,,,,,,,,,,,,,11.4064760208,11.3987216949,-1.0,-1.0,,,,,,,,,,,,,,,,,,,,,,,,,,,,,,,,,,,,,,,,,,,,,,,,,,,,,,,,,,,,,,,,,,,,,,,,,,,,,,,,,,,,,,,,,,,,,,,,,,,,,,,1999918,PX4FMU_V1,251760679a4bed86fdb10746062fde2cc23e460f,test,305419904.0
3.06686520576,-0.0516376495361,-0.0740313455462,-0.00251581752673,-0.00208670971915,0.0100927334279,-0.524258434772,-0.722938537598,9.97529315948,0.0,0.0,-0.0740313455462,0.0,-0.524258434772,-0.722938537598,9.97529315948,-0.00277107511647,-0.00214975653216,0.0100800255314,0.169499918818,0.00869214907289,-0.271605342627,1017.73999023,-37.3084716797,28.7099990845,0.0,0.0,0.0,0.0,0.0,0.0,0.0,0.0,0.0,0.0,0.0,0.0,0.0,0,0,0,0.0,0.0,,,,,,,,,,,,,,,,,,,,1.96337914467,0.0114079080522,0.00877340324223,0.0,0,1,0,0.0,0,0,0.0,-0.0,0.0,0.0222772285342,0.99816006422,0.656641602516,-0.998161792755,0.0,7,0,0.0,0.0,0.0,0.0,0.0,0.0,0.0,0.0,,,,15.1004009247,0.0856664329767,0.0685820877552,,,,,,,,,,,,,,,,0,0.0,0.0,0.0,0.0,0,0.0,0,0.0,,,,,,,,,,,,,,,,11.4064760208,11.3987293243,-1.0,-1.0,,,,,,,,,,,,,,,,,,,,,,,,,,,,,,,,,,,,,,,,,,,,,,,,,,,,,,,,,,,,,,,,,,,,,,,,,,,,,,,,,,,,,,,,,,,,,,,,,,,,,,,2020872,PX4FMU_V1,251760679a4bed86fdb10746062fde2cc23e460f,test,305419904.0
3.06684279442,-0.0516402050853,-0.0742979794741,-0.00276226061396,-0.00247830874287,0.0104576684535,-0.541971206665,-0.728942215443,9.94611167908,0.0,0.0,-0.0742979794741,0.0,-0.541971206665,-0.728942215443,9.94611167908,-0.00280037196353,-0.00230916682631,0.0100425155833,0.166747763753,0.00785991363227,-0.268044888973,1017.7199707,-37.1425819397,28.7099990845,0.0,0.0,0.0,0.0,0.0,0.0,0.0,0.0,0.0,0.0,0.0,0.0,0.0,0,0,0,0.0,0.0,,,,,,,,,,,,,,,,,,,,1.96338295937,0.0114767225459,0.00871846731752,0.0,0,1,0,0.0,0,0,0.0,-0.0,0.0,0.0198019798845,1.0,0.656641602516,-0.998161792755,0.0,7,0,0.0,0.0,0.0,0.0,0.0,0.0,0.0,0.0,,,,15.1001844406,0.0858041718602,0.0685807839036,,,,,,,,,,,,,,,,0,0.0,0.0,0.0,0.0,0,0.0,0,0.0,,,,,,,,,,,,,,,,11.4064760208,11.3987445831,-1.0,-1.0,,,,,,,,,,,,,,,,,,,,,,,,,,,,,,,,,,,,,,,,,,,,,,,,,,,,,,,,,,,,,,,,,,,,,,,,,,,,,,,,,,,,,,,,,,,,,,,,,,,,,,,2042095,PX4FMU_V1,251760679a4bed86fdb10746062fde2cc23e460f,test,305419904.0
3.06678915024,-0.0516694448888,-0.0733285993338,-0.00311566563323,-0.00156666489784,0.0107780480757,-0.545929789543,-0.748756408691,9.95910263062,0.0,0.0,-0.0733285993338,0.0,-0.545929789543,-0.748756408691,9.95910263062,-0.00295107974671,-0.00130876840558,0.0108510944992,0.16858252883,0.0153500270098,-0.26715478301,1017.75994873,-37.474357605,28.7199993134,0.0,0.0,0.0,0.0,0.0,0.0,0.0,0.0,0.0,0.0,0.0,0.0,0.0,0,0,0,0.0,0.0,,,,,,,,,,,,,,,,,,,,1.96335375309,0.0113381771371,0.00867562554777,0.0,0,1,0,0.0,0,0,0.0,-0.0,0.0,0.0222772285342,0.99816006422,0.656641602516,-0.998161792755,0.0,7,0,0.0,0.0,0.0,0.0,0.0,0.0,0.0,0.0,,,,15.099606514,0.0856500864029,0.0686155483127,,,,,,,,,,,,,,,,0,0.0,0.0,0.0,0.0,0,0.0,0,0.0,,,,,,,,,,,,,,,,11.4148569107,11.3987770081,-1.0,-1.0,,,,,,,,,,,,,,,,,,,,,,,,,,,,,,,,,,,,,,,,,,,,,,,,,,,,,,,,,,,,,,,,,,,,,,,,,,,,,,,,,,,,,,,,,,,,,,,,,,,,,,,2064311,PX4FMU_V1,251760679a4bed86fdb10746062fde2cc23e460f,test,305419904.0
3.06677603722,-0.0516730807722,-0.0730312913656,-0.00297810253687,-0.00198956974782,0.0107166878879,-0.53271150589,-0.720514893532,9.92557907104,0.0,0.0,-0.0730312913656,0.0,-0.53271150589,-0.720514893532,9.92557907104,-0.00292392633855,-0.00195800513029,0.0101816179231,0.169499918818,0.0128533225507,-0.26626470685,1017.69995117,-36.976688385,28.7199993134,0.0,0.0,0.0,0.0,0.0,0.0,0.0,0.0,0.0,0.0,0.0,0.0,0.0,0,0,0,0.0,0.0,,,,,,,,,,,,,,,,,,,,1.96331894398,0.0114572448656,0.00868488103151,0.0,0,1,0,0.0,0,0,0.0,-0.0,0.0,0.0222772285342,0.99816006422,0.656641602516,-0.998161792755,0.0,7,0,0.0,0.0,0.0,0.0,0.0,0.0,0.0,0.0,,,,15.0994758606,0.0861430838704,0.0686158910394,,,,,,,,,,,,,,,,0,0.0,0.0,0.0,0.0,0,0.0,0,0.0,,,,,,,,,,,,,,,,11.4064760208,11.3987922668,-1.0,-1.0,,,,,,,,,,,,,,,,,,,,,,,,,,,,,,,,,,,,,,,,,,,,,,,,,,,,,,,,,,,,,,,,,,,,,,,,,,,,,,,,,,,,,,,,,,,,,,,,,,,,,,,2085232,PX4FMU_V1,251760679a4bed86fdb10746062fde2cc23e460f,test,305419904.0
3.06672692299,-0.051685102284,-0.0724128335714,-0.00303627201356,-0.00143908255268,0.010118290782,-0.529335141182,-0.739323854446,9.94868755341,0.0,0.0,-0.0724128335714,0.0,-0.529335141182,-0.739323854446,9.94868755341,-0.00302086165175,-0.00144206150435,0.0100907851011,0.169499918818,0.0128533225507,-0.26715478301,1017.72998047,-37.2255249023,28.7299995422,0.0,0.0,0.0,0.0,0.0,0.0,0.0,0.0,0.0,0.0,0.0,0.0,0.0,0,0,0,0.0,0.0,,,,,,,,,,,,,,,,,,,,1.96326243877,0.0113615142182,0.00877620838583,0.0,0,1,0,0.0,0,0,0.0,-0.0,0.0,0.0198019798845,1.0,0.656641602516,-0.998161792755,0.0,7,0,0.0,0.0,0.0,0.0,0.0,0.0,0.0,0.0,,,,15.098982811,0.0859571844339,0.0686263442039,,,,,,,,,,,,,,,,0,0.0,0.0,0.0,0.0,0,0.0,0,0.0,,,,,,,,,,,,,,,,11.4148569107,11.3988084793,-1.0,-1.0,,,,,,,,,,,,,,,,,,,,,,,,,,,,,,,,,,,,,,,,,,,,,,,,,,,,,,,,,,,,,,,,,,,,,,,,,,,,,,,,,,,,,,,,,,,,,,,,,,,,,,,2106367,PX4FMU_V1,251760679a4bed86fdb10746062fde2cc23e460f,test,305419904.0
3.0666975975,-0.0516816675663,-0.0721264854074,-0.00240366114303,-0.00158509798348,0.0100466655567,-0.526628732681,-0.746261000633,9.95743751526,0.0,0.0,-0.0721264854074,0.0,-0.526628732681,-0.746261000633,9.95743751526,-0.00250613223761,-0.00131371128373,0.0101416297257,0.169499918818,0.00952438358217,-0.268934994936,1017.66998291,-36.727848053,28.7299995422,0.0,0.0,0.0,0.0,0.0,0.0,0.0,0.0,0.0,0.0,0.0,0.0,0.0,0,0,0,0.0,0.0,,,,,,,,,,,,,,,,,,,,1.96314513683,0.0114130275324,0.00878593605012,0.0,0,1,0,0.0,0,0,0.0,-0.0,0.0,0.0198019798845,1.0,0.656641602516,-0.998161792755,0.0,7,0,0.0,0.0,0.0,0.0,0.0,0.0,0.0,0.0,,,,15.0987138748,0.0862074270844,0.0686195716262,,,,,,,,,,,,,,,,0,0.0,0.0,0.0,0.0,0,0.0,0,0.0,,,,,,,,,,,,,,,,11.4148569107,11.3988409042,-1.0,-1.0,,,,,,,,,,,,,,,,,,,,,,,,,,,,,,,,,,,,,,,,,,,,,,,,,,,,,,,,,,,,,,,,,,,,,,,,,,,,,,,,,,,,,,,,,,,,,,,,,,,,,,,2128214,PX4FMU_V1,251760679a4bed86fdb10746062fde2cc23e460f,test,305419904.0
3.06666851044,-0.0516717918217,-0.0719826072454,-0.0028209593147,-0.00179640599526,0.010550850071,-0.524554491043,-0.73213994503,9.95598697662,0.0,0.0,-0.0719826072454,0.0,-0.524554491043,-0.73213994503,9.95598697662,-0.00275939167477,-0.00183237961028,0.0105984285474,0.170417279005,0.0120210880414,-0.263594388962,1017.66998291,-36.727848053,28.7299995422,0.0,0.0,0.0,0.0,0.0,0.0,0.0,0.0,0.0,0.0,0.0,0.0,0.0,0,0,0,0.0,0.0,,,,,,,,,,,,,,,,,,,,1.96316635609,0.0115155763924,0.00870748609304,0.0,0,1,0,0.0,0,0,0.0,-0.0,0.0,0.0198019798845,0.99816006422,0.656641602516,-0.998161792755,0.0,7,0,0.0,0.0,0.0,0.0,0.0,0.0,0.0,0.0,,,,15.0984592438,0.0867849513888,0.0686007514596,,,,,,,,,,,,,,,,0,0.0,0.0,0.0,0.0,0,0.0,0,0.0,,,,,,,,,,,,,,,,11.4148569107,11.3988733292,-1.0,-1.0,,,,,,,,,,,,,,,,,,,,,,,,,,,,,,,,,,,,,,,,,,,,,,,,,,,,,,,,,,,,,,,,,,,,,,,,,,,,,,,,,,,,,,,,,,,,,,,,,,,,,,,2148617,PX4FMU_V1,251760679a4bed86fdb10746062fde2cc23e460f,test,305419904.0
3.06663274765,-0.0516814514995,-0.0718271583319,-0.00250851456076,-0.00132211542223,0.0104659190401,-0.528530716896,-0.740303993225,9.93846035004,0.0,0.0,-0.0718271583319,0.0,-0.528530716896,-0.740303993225,9.93846035004,-0.00255054188892,-0.00130784802604,0.0107156205922,0.167665153742,0.0120210880414,-0.26626470685,1017.7199707,-37.1425819397,28.75,0.0,0.0,0.0,0.0,0.0,0.0,0.0,0.0,0.0,0.0,0.0,0.0,0.0,0,0,0,0.0,0.0,,,,,,,,,,,,,,,,,,,,1.96307754517,0.0113531826064,0.00872167944908,0.0,0,1,0,0.0,0,0,0.0,-0.0,0.0,0.0222772285342,0.99816006422,0.656641602516,-0.998161792755,0.0,7,0,0.0,0.0,0.0,0.0,0.0,0.0,0.0,0.0,,,,15.0980892181,0.0860100612044,0.068610444665,,,,,,,,,,,,,,,,0,0.0,0.0,0.0,0.0,0,0.0,0,0.0,,,,,,,,,,,,,,,,11.4148569107,11.3989057541,-1.0,-1.0,,,,,,,,,,,,,,,,,,,,,,,,,,,,,,,,,,,,,,,,,,,,,,,,,,,,,,,,,,,,,,,,,,,,,,,,,,,,,,,,,,,,,,,,,,,,,,,,,,,,,,,2169728,PX4FMU_V1,251760679a4bed86fdb10746062fde2cc23e460f,test,305419904.0
3.06662893295,-0.0516643561423,-0.0718154162169,-0.00235983496532,-0.00200143270195,0.0108805671334,-0.509684860706,-0.730257630348,9.95206069946,0.0,0.0,-0.0718154162169,0.0,-0.509684860706,-0.730257630348,9.95206069946,-0.00220732344314,-0.00228737224825,0.0106312306598,0.167665153742,0.0111888535321,-0.268934994936,1017.69995117,-36.976688385,28.75,0.0,0.0,0.0,0.0,0.0,0.0,0.0,0.0,0.0,0.0,0.0,0.0,0.0,0,0,0,0.0,0.0,,,,,,,,,,,,,,,,,,,,1.96305823326,0.0114838760346,0.0086557995528,0.0,0,1,0,0.0,0,0,0.0,-0.0,0.0,0.0222772285342,0.99816006422,0.656641602516,-0.998161792755,0.0,7,0,0.0,0.0,0.0,0.0,0.0,0.0,0.0,0.0,,,,15.0980892181,0.0863360762596,0.0685858950019,,,,,,,,,,,,,,,,0,0.0,0.0,0.0,0.0,0,0.0,0,0.0,,,,,,,,,,,,,,,,11.4148569107,11.398938179,-1.0,-1.0,,,,,,,,,,,,,,,,,,,,,,,,,,,,,,,,,,,,,,,,,,,,,,,,,,,,,,,,,,,,,,,,,,,,,,,,,,,,,,,,,,,,,,,,,,,,,,,,,,,,,,,2194036,PX4FMU_V1,251760679a4bed86fdb10746062fde2cc23e460f,test,305419904.0
3.06658864021,-0.051658783108,-0.0715772435069,-0.00197574845515,-0.0019768201746,0.0105720236897,-0.546332120895,-0.752006292343,9.9417514801,0.0,0.0,-0.0715772435069,0.0,-0.546332120895,-0.752006292343,9.9417514801,-0.00200198590755,-0.0017000681255,0.0109195467085,0.169499918818,0.0111888535321,-0.268934994936,1017.7199707,-37.1425819397,28.75,0.0,0.0,0.0,0.0,0.0,0.0,0.0,0.0,0.0,0.0,0.0,0.0,0.0,0,0,0,0.0,0.0,,,,,,,,,,,,,,,,,,,,1.96296107769,0.0114519381896,0.00870058685541,0.0,0,1,0,0.0,0,0,0.0,-0.0,0.0,0.0198019798845,1.0,0.656641602516,-0.998161792755,0.0,7,0,0.0,0.0,0.0,0.0,0.0,0.0,0.0,0.0,,,,15.0977249146,0.0861150175333,0.0685759335756,-4,6,0.253864526749,-0.3609380126,4.24499988556,215,77,,,,,,,,,0,0.0,0.0,0.0,0.0,0,0.0,0,0.0,,,,,,,,,,,,,,,,11.4064760208,11.3989620209,-1.0,-1.0,,,,,,,,,,,,,,,,,,,,,,,,,,,,,,,,,,,,,,,,,,,,,,,,,,,,,,,,,,,,,,,,,,,,,,,,,,,,,,,,,,,,,,,,,,,,,,,,,,,,,,,2225748,PX4FMU_V1,251760679a4bed86fdb10746062fde2cc23e460f,test,305419904.0
3.06655097008,-0.0516760163009,-0.0716613978148,-0.00242002657615,-0.00181061506737,0.0108901737258,-0.527663350105,-0.753186404705,9.96403408051,0.0,0.0,-0.0716613978148,0.0,-0.527663350105,-0.753186404705,9.96403408051,-0.00252193724737,-0.00198941491544,0.0109745962545,0.171334668994,0.0103566180915,-0.268934994936,1017.70996094,-37.0596351624,28.75,0.0,0.0,0.0,0.0,0.0,0.0,0.0,0.0,0.0,0.0,0.0,0.0,0.0,0,0,0,0.0,0.0,,,,,,,,,,,,,,,,,,,,1.96296656132,0.0114681031555,0.00865532085299,0.0,0,1,0,0.0,0,0,0.0,-0.0,0.0,0.0222772285342,0.99816006422,0.656641602516,-0.998161792755,0.0,7,0,0.0,0.0,0.0,0.0,0.0,0.0,0.0,0.0,,,,15.097322464,0.0864055603743,0.0685923099518,-4,7,0.281098484993,-0.447478592396,4.24499988556,231,77,,,,,,,,,0,0.0,0.0,0.0,0.0,0,0.0,0,0.0,,,,,,,,,,,,,,,,11.4064760208,11.3989858627,-1.0,-1.0,,,,,,,,,,,,,,,,,,,,,,,,,,,,,,,,,,,,,,,,,,,,,,,,,,,,,,,,,,,,,,,,,,,,,,,,,,,,,,,,,,,,,,,,,,,,,,,,,,,,,,,2246375,PX4FMU_V1,251760679a4bed86fdb10746062fde2cc23e460f,test,305419904.0
3.06650209427,-0.0516536384821,-0.0711702927947,-0.00320703117177,-0.00199872301891,0.0106578785926,-0.548883855343,-0.735430240631,9.95979690552,0.0,0.0,-0.0711702927947,0.0,-0.548883855343,-0.735430240631,9.95979690552,-0.00279550161213,-0.00181781663559,0.0101807657629,0.170417279005,0.0120210880414,-0.263594388962,1017.75,-37.3914146423,28.75,0.0,0.0,0.0,0.0,0.0,0.0,0.0,0.0,0.0,0.0,0.0,0.0,0.0,0,0,0,0.0,0.0,,,,,,,,,,,,,,,,,,,,1.96301472187,0.0114295911044,0.00868589803576,0.0,0,1,0,0.0,0,0,0.0,-0.0,0.0,0.0198019798845,1.0,0.656641602516,-0.998161792755,0.0,7,0,0.0,0.0,0.0,0.0,0.0,0.0,0.0,0.0,,,,15.096906662,0.0859212130308,0.0685638636351,-3,6,0.25441712141,-0.411197006702,4.24499988556,219,77,,,,,,,,,0,0.0,0.0,0.0,0.0,0,0.0,0,0.0,,,,,,,,,,,,,,,,11.4148569107,11.3990182877,-1.0,-1.0,,,,,,,,,,,,,,,,,,,,,,,,,,,,,,,,,,,,,,,,,,,,,,,,,,,,,,,,,,,,,,,,,,,,,,,,,,,,,,,,,,,,,,,,,,,,,,,,,,,,,,,2268766,PX4FMU_V1,251760679a4bed86fdb10746062fde2cc23e460f,test,305419904.0
3.06648468971,-0.0516663119197,-0.0708349347115,-0.00224233721383,-0.00163240963593,0.0105738835409,-0.530381500721,-0.739591658115,9.95519828796,0.0,0.0,-0.0708349347115,0.0,-0.530381500721,-0.739591658115,9.95519828796,-0.00230437610298,-0.00136423716322,0.0108440499753,0.169499918818,0.0145177915692,-0.268044888973,1017.70996094,-37.0596351624,28.75,0.0,0.0,0.0,0.0,0.0,0.0,0.0,0.0,0.0,0.0,0.0,0.0,0.0,0,0,0,0.0,0.0,,,,,,,,,,,,,,,,,,,,1.96286344528,0.0114481123164,0.00869992095977,0.0,0,1,0,0.0,0,0,0.0,-0.0,0.0,0.0222772285342,0.99816006422,0.656641602516,-0.998161792755,0.0,7,0,0.0,0.0,0.0,0.0,0.0,0.0,0.0,0.0,,,,15.0967082977,0.0864299982786,0.0685733556747,-3,6,0.239964097738,-0.409356027842,4.23699998856,227,77,,,,,,,,,0,0.0,0.0,0.0,0.0,0,0.0,0,0.0,,,,,,,,,,,,,,,,11.4148569107,11.3990507126,-1.0,-1.0,,,,,,,,,,,,,,,,,,,,,,,,,,,,,,,,,,,,,,,,,,,,,,,,,,,,,,,,,,,,,,,,,,,,,,,,,,,,,,,,,,,,,,,,,,,,,,,,,,,,,,,2289590,PX4FMU_V1,251760679a4bed86fdb10746062fde2cc23e460f,test,305419904.0
3.06645011902,-0.0516551695764,-0.0709636434913,-0.00251477514394,-0.00196299725212,0.0104564074427,-0.527827739716,-0.746140360832,9.9590883255,0.0,0.0,-0.0709636434913,0.0,-0.527827739716,-0.746140360832,9.9590883255,-0.00270112138242,-0.0020000054501,0.0102896168828,0.170417279005,0.00785991363227,-0.270715236664,1017.75,-37.3914146423,28.7600002289,0.0,0.0,0.0,0.0,0.0,0.0,0.0,0.0,0.0,0.0,0.0,0.0,0.0,0,0,0,0.0,0.0,,,,,,,,,,,,,,,,,,,,1.962859869,0.0114758843556,0.00871480815113,0.0,0,1,0,0.0,0,0,0.0,-0.0,0.0,0.0198019798845,1.0,0.654135346413,-0.996323525906,0.0,7,0,0.0,0.0,0.0,0.0,0.0,0.0,0.0,0.0,,,,15.0964078903,0.0863130390644,0.068555124104,-3,4,0.228525489569,-0.296633720398,4.23699998856,235,77,,,,,,,,,0,0.0,0.0,0.0,0.0,0,0.0,0,0.0,,,,,,,,,,,,,,,,11.4064760208,11.399058342,-1.0,-1.0,,,,,,,,,,,,,,,,,,,,,,,,,,,,,,,,,,,,,,,,,,,,,,,,,,,,,,,,,,,,,,,,,,,,,,,,,,,,,,,,,,,,,,,,,,,,,,,,,,,,,,,2310752,PX4FMU_V1,251760679a4bed86fdb10746062fde2cc23e460f,test,305419904.0
3.06642651558,-0.0516419969499,-0.0717763528228,-0.00235915789381,-0.00214413017966,0.0104743503034,-0.547752022743,-0.734519779682,9.96513748169,0.0,0.0,-0.0717763528228,0.0,-0.547752022743,-0.734519779682,9.96513748169,-0.00226832786575,-0.00210888893344,0.0102709615603,0.166747763753,0.00453097466379,-0.272495448589,1017.70996094,-37.0596351624,28.7600002289,0.0,0.0,0.0,0.0,0.0,0.0,0.0,0.0,0.0,0.0,0.0,0.0,0.0,0,0,0,0.0,0.0,,,,,,,,,,,,,,,,,,,,1.9628136158,0.0114675452933,0.00870946515352,0.0,0,1,0,0.0,0,0,0.0,-0.0,0.0,0.0198019798845,1.0,0.656641602516,-0.998161792755,0.0,7,0,0.0,0.0,0.0,0.0,0.0,0.0,0.0,0.0,,,,15.0962076187,0.0860677585006,0.0685374513268,-3,9,0.203911423683,-0.600618124008,4.23699998856,243,77,,,,,,,,,0,0.0,0.0,0.0,0.0,0,0.0,0,0.0,,,,,,,,,,,,,,,,11.4064760208,11.3990821838,-1.0,-1.0,,,,,,,,,,,,,,,,,,,,,,,,,,,,,,,,,,,,,,,,,,,,,,,,,,,,,,,,,,,,,,,,,,,,,,,,,,,,,,,,,,,,,,,,,,,,,,,,,,,,,,,2332794,PX4FMU_V1,251760679a4bed86fdb10746062fde2cc23e460f,test,305419904.0
3.06640267372,-0.0516510009766,-0.0711773410439,-0.00260771438479,-0.00206052721478,0.01001152955,-0.528521478176,-0.738864600658,9.94359970093,0.0,0.0,-0.0711773410439,0.0,-0.528521478176,-0.738864600658,9.94359970093,-0.00261052907445,-0.00208255741745,0.0100815957412,0.166747763753,0.0170144978911,-0.26626470685,1017.70996094,-37.0596351624,28.7600002289,0.0,0.0,0.0,0.0,0.0,0.0,0.0,0.0,0.0,0.0,0.0,0.0,0.0,0,0,0,0.0,0.0,,,,,,,,,,,,,,,,,,,,1.96281599998,0.0115217808634,0.00878053437918,0.0,0,1,0,0.0,0,0,0.0,-0.0,0.0,0.0198019798845,1.0,0.656641602516,-0.998161792755,0.0,7,0,0.0,0.0,0.0,0.0,0.0,0.0,0.0,0.0,,,,15.0959777832,0.0865685641766,0.0685484260321,-4,8,0.232961639762,-0.464262843132,4.23699998856,239,77,,,,,,,,,0,0.0,0.0,0.0,0.0,0,0.0,0,0.0,,,,,,,,,,,,,,,,11.4064760208,11.3990974426,-1.0,-1.0,,,,,,,,,,,,,,,,,,,,,,,,,,,,,,,,,,,,,,,,,,,,,,,,,,,,,,,,,,,,,,,,,,,,,,,,,,,,,,,,,,,,,,,,,,,,,,,,,,,,,,,2354345,PX4FMU_V1,251760679a4bed86fdb10746062fde2cc23e460f,test,305419904.0
3.06638479233,-0.0516458153725,-0.0714271590114,-0.0032276106067,-0.00232201442122,0.00944205373526,-0.541837632656,-0.72665566206,9.96479129791,0.0,0.0,-0.0714271590114,0.0,-0.541837632656,-0.72665566206,9.96479129791,-0.00345122208819,-0.00220017437823,0.00940631143749,0.169499918818,0.00536320963874,-0.275165736675,1017.73999023,-37.3084716797,28.7799987793,0.0,0.0,0.0,0.0,0.0,0.0,0.0,0.0,0.0,0.0,0.0,0.0,0.0,0,0,0,0.0,0.0,,,,,,,,,,,,,,,,,,,,1.96287608147,0.0115708885714,0.00886418111622,0.0,0,1,0,0.0,0,0,0.0,-0.0,0.0,0.0222772285342,0.99816006422,0.656641602516,-0.998161792755,0.0,7,0,0.0,0.0,0.0,0.0,0.0,0.0,0.0,0.0,,,,15.0958204269,0.0866848230362,0.0685365945101,-3,9,0.215491980314,-0.517024636269,4.23699998856,235,77,,,,,,,,,0,0.0,0.0,0.0,0.0,0,0.0,0,0.0,,,,,,,,,,,,,,,,11.4148569107,11.3991298676,-1.0,-1.0,,,,,,,,,,,,,,,,,,,,,,,,,,,,,,,,,,,,,,,,,,,,,,,,,,,,,,,,,,,,,,,,,,,,,,,,,,,,,,,,,,,,,,,,,,,,,,,,,,,,,,,2375375,PX4FMU_V1,251760679a4bed86fdb10746062fde2cc23e460f,test,305419904.0
3.06636285782,-0.0516288839281,-0.0711249560118,-0.00264578312635,-0.00201312848367,0.0103528546169,-0.514093637466,-0.722923994064,9.97307395935,0.0,0.0,-0.0711249560118,0.0,-0.514093637466,-0.722923994064,9.97307395935,-0.00222229911014,-0.00189125363249,0.0103132100776,0.169499918818,0.0111888535321,-0.26715478301,1017.73999023,-37.3084716797,28.7799987793,0.0,0.0,0.0,0.0,0.0,0.0,0.0,0.0,0.0,0.0,0.0,0.0,0.0,0,0,0,0.0,0.0,,,,,,,,,,,,,,,,,,,,1.9627777338,0.0114833209664,0.00872443150729,0.0,0,1,0,0.0,0,0,0.0,-0.0,0.0,0.0198019798845,1.0,0.656641602516,-0.998161792755,0.0,7,0,0.0,0.0,0.0,0.0,0.0,0.0,0.0,0.0,,,,15.0956449509,0.0863201096654,0.0685157254338,-2,5,0.146837279201,-0.311409324408,4.23600006104,211,77,,,,,,,,,0,0.0,0.0,0.0,0.0,0,0.0,0,0.0,,,,,,,,,,,,,,,,11.4148569107,11.3991527557,-1.0,-1.0,,,,,,,,,,,,,,,,,,,,,,,,,,,,,,,,,,,,,,,,,,,,,,,,,,,,,,,,,,,,,,,,,,,,,,,,,,,,,,,,,,,,,,,,,,,,,,,,,,,,,,,2397085,PX4FMU_V1,251760679a4bed86fdb10746062fde2cc23e460f,test,305419904.0
3.0663459301,-0.0516208522022,-0.0710996463895,-0.00277209607884,-0.0023901858367,0.0107195107266,-0.53791230917,-0.729250073433,9.9595375061,0.0,0.0,-0.0710996463895,0.0,-0.53791230917,-0.729250073433,9.9595375061,-0.00284812413156,-0.00283744442277,0.0108019998297,0.16858252883,0.0111888535321,-0.26626470685,1017.75,-37.3914146423,28.7899990082,0.0,0.0,0.0,0.0,0.0,0.0,0.0,0.0,0.0,0.0,0.0,0.0,0.0,0,0,0,0.0,0.0,,,,,,,,,,,,,,,,,,,,1.96277725697,0.0115918731317,0.00866743177176,0.0,0,1,0,0.0,0,0,0.0,-0.0,0.0,0.0198019798845,0.99816006422,0.656641602516,-0.998161792755,0.0,7,0,0.0,0.0,0.0,0.0,0.0,0.0,0.0,0.0,,,,15.0955152512,0.0867780745029,0.0685023888946,-3,6,0.237926214933,-0.414964854717,4.23600006104,235,77,,,,,,,,,0,0.0,0.0,0.0,0.0,0,0.0,0,0.0,,,,,,,,,,,,,,,,11.4148569107,11.3991680145,-1.0,-1.0,,,,,,,,,,,,,,,,,,,,,,,,,,,,,,,,,,,,,,,,,,,,,,,,,,,,,,,,,,,,,,,,,,,,,,,,,,,,,,,,,,,,,,,,,,,,,,,,,,,,,,,2417791,PX4FMU_V1,251760679a4bed86fdb10746062fde2cc23e460f,test,305419904.0
3.0663394928,-0.0515977777541,-0.0708888471127,-0.00222580716945,-0.00249968073331,0.0112332785502,-0.523084700108,-0.719446241856,9.96085453033,0.0,0.0,-0.0708888471127,0.0,-0.523084700108,-0.719446241856,9.96085453033,-0.00207589799538,-0.00229181814939,0.0111754592508,0.170417279005,0.0145177915692,-0.265374600887,1017.7199707,-37.1425819397,28.7899990082,0.0,0.0,0.0,0.0,0.0,0.0,0.0,0.0,0.0,0.0,0.0,0.0,0.0,0,0,0,0.0,0.0,,,,,,,,,,,,,,,,,,,,1.96270394325,0.0115863606334,0.00858553498983,0.0,0,1,0,0.0,0,0,0.0,-0.0,0.0,0.0222772285342,0.99816006422,0.656641602516,-0.998161792755,0.0,7,0,0.0,0.0,0.0,0.0,0.0,0.0,0.0,0.0,,,,15.0954971313,0.0866261795163,0.0684701725841,-4,5,0.258893668652,-0.32564663887,4.23600006104,247,77,,,,,,,,,0,0.0,0.0,0.0,0.0,0,0.0,0,0.0,,,,,,,,,,,,,,,,11.4148569107,11.3991909027,-1.0,-1.0,,,,,,,,,,,,,,,,,,,,,,,,,,,,,,,,,,,,,,,,,,,,,,,,,,,,,,,,,,,,,,,,,,,,,,,,,,,,,,,,,,,,,,,,,,,,,,,,,,,,,,,2438943,PX4FMU_V1,251760679a4bed86fdb10746062fde2cc23e460f,test,305419904.0
3.06632852554,-0.0515792220831,-0.0700776576996,-0.00239706039429,-0.00170211691875,0.0107389744371,-0.518785536289,-0.727725207806,9.95282745361,0.0,0.0,-0.0700776576996,0.0,-0.518785536289,-0.727725207806,9.95282745361,-0.00266745267436,-0.001842250349,0.0104800444096,0.171334668994,0.0153500270098,-0.264484494925,1017.75994873,-37.474357605,28.7799987793,0.0,0.0,0.0,0.0,0.0,0.0,0.0,0.0,0.0,0.0,0.0,0.0,0.0,0,0,0,0.0,0.0,,,,,,,,,,,,,,,,,,,,1.96271777153,0.0114338956773,0.00865628756583,0.0,0,1,0,0.0,0,0,0.0,-0.0,0.0,0.0198019798845,1.0,0.656641602516,-0.998161792755,0.0,7,0,0.0,0.0,0.0,0.0,0.0,0.0,0.0,0.0,,,,15.0954322815,0.0862509310246,0.0684475600719,-2,4,0.184343263507,-0.301130861044,4.23600006104,239,77,,,,,,,,,0,0.0,0.0,0.0,0.0,0,0.0,0,0.0,,,,,,,,,,,,,,,,11.4148569107,11.3992214203,-1.0,-1.0,,,,,,,,,,,,,,,,,,,,,,,,,,,,,,,,,,,,,,,,,,,,,,,,,,,,,,,,,,,,,,,,,,,,,,,,,,,,,,,,,,,,,,,,,,,,,,,,,,,,,,,2460931,PX4FMU_V1,251760679a4bed86fdb10746062fde2cc23e460f,test,305419904.0
3.06630134583,-0.0515692159534,-0.0698883831501,-0.00301695126109,-0.00180094933603,0.0110458647832,-0.526071310043,-0.738880455494,9.95099258423,0.0,0.0,-0.0698883831501,0.0,-0.526071310043,-0.738880455494,9.95099258423,-0.00308680254966,-0.00177968211938,0.0110832490027,0.16858252883,0.0103566180915,-0.264484494925,1017.72998047,-37.2255249023,28.7799987793,0.0,0.0,0.0,0.0,0.0,0.0,0.0,0.0,0.0,0.0,0.0,0.0,0.0,0,0,0,0.0,0.0,,,,,,,,,,,,,,,,,,,,1.96276915073,0.0114919450134,0.00860852468759,0.0,0,1,0,0.0,0,0,0.0,-0.0,0.0,0.0222772285342,0.99816006422,0.656641602516,-0.998161792755,0.0,7,0,0.0,0.0,0.0,0.0,0.0,0.0,0.0,0.0,,,,15.0952072144,0.0865986347198,0.0684360265732,-1,5,0.0680373907089,-0.372740238905,4.23600006104,207,77,,,,,,,,,0,0.0,0.0,0.0,0.0,0,0.0,0,0.0,,,,,,,,,,,,,,,,11.4148569107,11.3992519379,-1.0,-1.0,,,,,,,,,,,,,,,,,,,,,,,,,,,,,,,,,,,,,,,,,,,,,,,,,,,,,,,,,,,,,,,,,,,,,,,,,,,,,,,,,,,,,,,,,,,,,,,,,,,,,,,2482242,PX4FMU_V1,251760679a4bed86fdb10746062fde2cc23e460f,test,305419904.0
3.06628537178,-0.0515616200864,-0.0697580650449,-0.0029440978542,-0.00206052255817,0.0103721218184,-0.531929016113,-0.717086553574,9.93893432617,0.0,0.0,-0.0697580650449,0.0,-0.531929016113,-0.717086553574,9.93893432617,-0.002897658851,-0.0021042120643,0.0102376192808,0.167665153742,0.0111888535321,-0.268044888973,1017.70996094,-37.0596351624,28.7799987793,0.0,0.0,0.0,0.0,0.0,0.0,0.0,0.0,0.0,0.0,0.0,0.0,0.0,0,0,0,0.0,0.0,,,,,,,,,,,,,,,,,,,,1.96274209023,0.0115100834519,0.0087076658383,0.0,0,1,0,0.0,0,0,0.0,-0.0,0.0,0.0222772285342,0.996320128441,0.65914785862,-0.998161792755,0.0,7,0,0.0,0.0,0.0,0.0,0.0,0.0,0.0,0.0,,,,15.0950727463,0.0864785835147,0.0684232264757,-1,6,0.0785118639469,-0.383115708828,4.23000001907,207,77,,,,,,,,,0,0.0,0.0,0.0,0.0,0,0.0,0,0.0,,,,,,,,,,,,,,,,11.4148569107,11.3992671967,-1.0,-1.0,,,,,,,,,,,,,,,,,,,,,,,,,,,,,,,,,,,,,,,,,,,,,,,,,,,,,,,,,,,,,,,,,,,,,,,,,,,,,,,,,,,,,,,,,,,,,,,,,,,,,,,2503487,PX4FMU_V1,251760679a4bed86fdb10746062fde2cc23e460f,test,305419904.0
3.0662624836,-0.051551502198,-0.0697426497936,-0.0023914121557,-0.00200419104658,0.0106421168894,-0.522462368011,-0.726474881172,9.97189712524,0.0,0.0,-0.0697426497936,0.0,-0.522462368011,-0.726474881172,9.97189712524,-0.00207292335108,-0.00173017103225,0.0109021821991,0.166747763753,0.0120210880414,-0.26715478301,1017.7699585,-37.5573005676,28.7899990082,0.0,0.0,0.0,0.0,0.0,0.0,0.0,0.0,0.0,0.0,0.0,0.0,0.0,0,0,0,0.0,0.0,,,,,,,,,,,,,,,,,,,,1.96264469624,0.0115022184327,0.00866456143558,0.0,0,1,0,0.0,0,0,0.0,-0.0,0.0,0.0222772285342,0.99816006422,0.656641602516,-0.998161792755,0.0,7,0,0.0,0.0,0.0,0.0,0.0,0.0,0.0,0.0,,,,15.0948753357,0.0864744186401,0.0684058591723,-2,4,0.151798337698,-0.31500005722,4.23000001907,231,77,,,,,,,,,0,0.0,0.0,0.0,0.0,0,0.0,0,0.0,,,,,,,,,,,,,,,,11.4148569107,11.3992977142,-1.0,-1.0,,,,,,,,,,,,,,,,,,,,,,,,,,,,,,,,,,,,,,,,,,,,,,,,,,,,,,,,,,,,,,,,,,,,,,,,,,,,,,,,,,,,,,,,,,,,,,,,,,,,,,,2525208,PX4FMU_V1,251760679a4bed86fdb10746062fde2cc23e460f,test,305419904.0
3.06623744965,-0.051546048373,-0.0699033588171,-0.00220893789083,-0.00186755182222,0.0103215640411,-0.538260579109,-0.747269570827,9.96025085449,0.0,0.0,-0.0699033588171,0.0,-0.538260579109,-0.747269570827,9.96025085449,-0.00232302863151,-0.00189299858175,0.0100730136037,0.169499918818,0.0120210880414,-0.265374600887,1017.7199707,-37.1425819397,28.7899990082,0.0,0.0,0.0,0.0,0.0,0.0,0.0,0.0,0.0,0.0,0.0,0.0,0.0,0,0,0,0.0,0.0,,,,,,,,,,,,,,,,,,,,1.96259069443,0.0115447323769,0.00871124397963,0.0,0,1,0,0.0,0,0,0.0,-0.0,0.0,0.0222772285342,0.99816006422,0.656641602516,-0.998161792755,0.0,7,0,0.0,0.0,0.0,0.0,0.0,0.0,0.0,0.0,,,,15.0946435928,0.0869380831718,0.0683965235949,-3,5,0.181967020035,-0.339572370052,4.23000001907,239,77,,,,,,,,,0,0.0,0.0,0.0,0.0,0,0.0,0,0.0,,,,,,,,,,,,,,,,11.4232378006,11.3993368149,-1.0,-1.0,,,,,,,,,,,,,,,,,,,,,,,,,,,,,,,,,,,,,,,,,,,,,,,,,,,,,,,,,,,,,,,,,,,,,,,,,,,,,,,,,,,,,,,,,,,,,,,,,,,,,,,2545705,PX4FMU_V1,251760679a4bed86fdb10746062fde2cc23e460f,test,305419904.0
3.06621146202,-0.0515456646681,-0.0698283836246,-0.00300499214791,-0.00182654208038,0.010321199894,-0.528194785118,-0.727697491646,9.96068191528,0.0,0.0,-0.0698283836246,0.0,-0.528194785118,-0.727697491646,9.96068191528,-0.00299353711307,-0.0016914884327,0.0103768333793,0.170417279005,0.0120210880414,-0.26626470685,1017.7199707,-37.1425819397,28.7899990082,0.0,0.0,0.0,0.0,0.0,0.0,0.0,0.0,0.0,0.0,0.0,0.0,0.0,0,0,0,0.0,0.0,,,,,,,,,,,,,,,,,,,,1.96266412735,0.0114666139707,0.0087111806497,0.0,0,1,0,0.0,0,0,0.0,-0.0,0.0,0.0198019798845,1.0,0.656641602516,-0.998161792755,0.0,7,0,0.0,0.0,0.0,0.0,0.0,0.0,0.0,0.0,,,,15.09441185,0.0863781869411,0.0683957338333,-4,4,0.262943387032,-0.282623916864,4.23000001907,223,77,,,,,,,,,0,0.0,0.0,0.0,0.0,0,0.0,0,0.0,,,,,,,,,,,,,,,,11.4232378006,11.3993673325,-1.0,-1.0,,,,,,,,,,,,,,,,,,,,,,,,,,,,,,,,,,,,,,,,,,,,,,,,,,,,,,,,,,,,,,,,,,,,,,,,,,,,,,,,,,,,,,,,,,,,,,,,,,,,,,,2567103,PX4FMU_V1,251760679a4bed86fdb10746062fde2cc23e460f,test,305419904.0
3.06620168686,-0.051551528275,-0.0692260861397,-0.00271396012977,-0.00144380494021,0.0104824705049,-0.533909440041,-0.731133818626,9.96210670471,0.0,-0.00156632135622,-0.0692260861397,0.0,-0.533909440041,-0.731133818626,9.96210670471,-0.00289791752584,-0.00125291012228,0.0106961447746,0.169499918818,0.0136855570599,-0.264484494925,1017.75,-37.3914146423,28.7999992371,0.0,0.0,0.0,0.0,0.0,0.0,0.0,0.0,0.0,0.0,0.0,0.0,0.0,0,0,0,0.0,0.0,,,,,,,,,,,,,,,,,,,,1.96307957172,0.0110096894205,0.00839567184448,0.0,0,1,0,0.0,0,0,0.0,0.0025641026441,0.0,0.0198019798845,1.0,0.656641602516,-0.998161792755,0.0,7,0,0.0,0.0,0.0,0.0,0.0,0.0,0.0,0.0,,,,15.0978984833,0.0832461193204,0.0664536133409,-1,8,0.0806705206633,-0.476756125689,4.23999977112,239,77,,,,,,,,,0,0.0,0.0,0.0,0.0,0,0.0,0,0.0,,,,,,,,,,,,,,,,11.4148569107,11.39939785,-1.0,-1.0,,,,,,,,,,,,,,,,,,,,,,,,,,,,,,,,,,,,,,,,,,,,,,,,,,,,,,,,,,,,,,,,,,,,,,,,,,,,,,,,,,,,,,,,,,,,,,,,,,,,,,,2589393,PX4FMU_V1,251760679a4bed86fdb10746062fde2cc23e460f,test,305419904.0
3.06619477272,-0.0515545606613,-0.0688041672111,-0.00205337628722,-0.00162399467081,0.0109116658568,-0.526267409325,-0.727378606796,9.96880817413,0.0,0.0,-0.0688041672111,0.0,-0.526267409325,-0.727378606796,9.96880817413,-0.00224549439736,-0.00199223705567,0.0109567744657,0.167665153742,0.0120210880414,-0.264484494925,1017.73999023,-37.3084716797,28.7999992371,0.0,0.0,0.0,0.0,0.0,0.0,0.0,0.0,0.0,0.0,0.0,0.0,0.0,0,0,0,0.0,0.0,,,,,,,,,,,,,,,,,,,,1.96251475811,0.0114439120516,0.0086236288771,0.0,0,1,0,0.0,0,0,0.0,-0.0,0.0,0.0198019798845,1.0,0.656641602516,-0.998161792755,0.0,7,0,0.0,0.0,0.0,0.0,0.0,0.0,0.0,0.0,,,,15.0942144394,0.0864060968161,0.0684025213122,-2,6,0.126880928874,-0.375670433044,4.23999977112,231,77,,,,,,,,,0,0.0,0.0,0.0,0.0,0,0.0,0,0.0,,,,,,,,,,,,,,,,11.4148569107,11.3994131088,-1.0,-1.0,,,,,,,,,,,,,,,,,,,,,,,,,,,,,,,,,,,,,,,,,,,,,,,,,,,,,,,,,,,,,,,,,,,,,,,,,,,,,,,,,,,,,,,,,,,,,,,,,,,,,,,2610219,PX4FMU_V1,251760679a4bed86fdb10746062fde2cc23e460f,test,305419904.0
3.06617450714,-0.0515521466732,-0.0690549835563,-0.00257650204003,-0.00212330627255,0.0101936226711,-0.538872659206,-0.734482705593,9.95879077911,0.0,0.0,-0.0690549835563,0.0,-0.538872659206,-0.734482705593,9.95879077911,-0.00244869617745,-0.00207952223718,0.00972301326692,0.167665153742,0.00869214907289,-0.268044888973,1017.77996826,-37.6402397156,28.7899990082,0.0,0.0,0.0,0.0,0.0,0.0,0.0,0.0,0.0,0.0,0.0,0.0,0.0,0,0,0,0.0,0.0,,,,,,,,,,,,,,,,,,,,1.96255862713,0.0115401549265,0.00873068720102,0.0,0,1,0,0.0,0,0,0.0,-0.0,0.0,0.0198019798845,1.0,0.656641602516,-0.998161792755,0.0,7,0,0.0,0.0,0.0,0.0,0.0,0.0,0.0,0.0,,,,15.0940284729,0.0866471230984,0.0683981999755,-2,8,0.145263522863,-0.502427339554,4.23999977112,239,77,,,,,,,,,0,0.0,0.0,0.0,0.0,0,0.0,0,0.0,,,,,,,,,,,,,,,,11.4148569107,11.3994522095,-1.0,-1.0,,,,,,,,,,,,,,,,,,,,,,,,,,,,,,,,,,,,,,,,,,,,,,,,,,,,,,,,,,,,,,,,,,,,,,,,,,,,,,,,,,,,,,,,,,,,,,,,,,,,,,,2631416,PX4FMU_V1,251760679a4bed86fdb10746062fde2cc23e460f,test,305419904.0
3.06616401672,-0.0515532977879,-0.0703326538205,-0.00222301320173,-0.00240480643697,0.0103981373832,-0.539852440357,-0.728793561459,9.94445610046,0.0,0.0,-0.0703326538205,0.0,-0.539852440357,-0.728793561459,9.94445610046,-0.00233424454927,-0.00245363847353,0.0106813022867,0.16858252883,0.00952438358217,-0.268044888973,1017.7199707,-37.1425819397,28.7899990082,0.0,0.0,0.0,0.0,0.0,0.0,0.0,0.0,0.0,0.0,0.0,0.0,0.0,0,0,0,0.0,0.0,,,,,,,,,,,,,,,,,,,,1.96249854565,0.0115476502106,0.00869952049106,0.0,0,1,0,0.0,0,0,0.0,-0.0,0.0,0.0198019798845,1.0,0.656641602516,-0.998161792755,0.0,7,0,0.0,0.0,0.0,0.0,0.0,0.0,0.0,0.0,,,,15.093919754,0.0864232704043,0.0683949366212,-3,10,0.196800798178,-0.61581158638,4.23999977112,239,77,,,,,,,,,0,0.0,0.0,0.0,0.0,0,0.0,0,0.0,,,,,,,,,,,,,,,,11.4148569107,11.3994827271,-1.0,-1.0,,,,,,,,,,,,,,,,,,,,,,,,,,,,,,,,,,,,,,,,,,,,,,,,,,,,,,,,,,,,,,,,,,,,,,,,,,,,,,,,,,,,,,,,,,,,,,,,,,,,,,,2653740,PX4FMU_V1,251760679a4bed86fdb10746062fde2cc23e460f,test,305419904.0
3.06615209579,-0.051556725055,-0.0699072182178,-0.00278430711478,-0.00190107198432,0.0110931582749,-0.540082216263,-0.73057538271,9.95969676971,0.0,0.0,-0.0699072182178,0.0,-0.540082216263,-0.73057538271,9.95969676971,-0.00273116212338,-0.00151026807725,0.0112246284261,0.170417279005,0.0161822624505,-0.268044888973,1017.75994873,-37.474357605,28.7999992371,0.0,0.0,0.0,0.0,0.0,0.0,0.0,0.0,0.0,0.0,0.0,0.0,0.0,0,0,0,0.0,0.0,,,,,,,,,,,,,,,,,,,,1.96255755424,0.0114989066496,0.00859614554793,0.0,0,1,0,0.0,0,0,0.0,-0.0,0.0,0.0198019798845,1.0,0.656641602516,-0.998161792755,0.0,7,0,0.0,0.0,0.0,0.0,0.0,0.0,0.0,0.0,,,,15.0938119888,0.08655205369,0.0684007927775,-2,9,0.158842727542,-0.599388599396,4.23999977112,235,77,,,,,,,,,0,0.0,0.0,0.0,0.0,0,0.0,0,0.0,,,,,,,,,,,,,,,,11.4232378006,11.3995304108,-1.0,-1.0,,,,,,,,,,,,,,,,,,,,,,,,,,,,,,,,,,,,,,,,,,,,,,,,,,,,,,,,,,,,,,,,,,,,,,,,,,,,,,,,,,,,,,,,,,,,,,,,,,,,,,,2674680,PX4FMU_V1,251760679a4bed86fdb10746062fde2cc23e460f,test,305419904.0
3.0661277771,-0.0515500754118,-0.0695584267378,-0.00285233953036,-0.0020740351174,0.0106668714434,-0.524977862835,-0.733735322952,9.98163795471,0.0,0.0,-0.0695584267378,0.0,-0.524977862835,-0.733735322952,9.98163795471,-0.00295439991169,-0.00220542517491,0.0102817574516,0.16858252883,0.0103566180915,-0.26715478301,1017.69995117,-36.976688385,28.7999992371,0.0,0.0,0.0,0.0,0.0,0.0,0.0,0.0,0.0,0.0,0.0,0.0,0.0,0,0,0,0.0,0.0,,,,,,,,,,,,,,,,,,,,1.96253836155,0.0115811023861,0.00865826196969,0.0,0,1,0,0.0,0,0,0.0,-0.0,0.0,0.0198019798845,1.0,0.656641602516,-0.998161792755,0.0,7,0,0.0,0.0,0.0,0.0,0.0,0.0,0.0,0.0,,,,15.0935974121,0.0870113745332,0.0683886110783,-3,6,0.236905410886,-0.419114768505,4.23999977112,235,77,,,,,,,,,0,0.0,0.0,0.0,0.0,0,0.0,0,0.0,,,,,,,,,,,,,,,,11.4148569107,11.3995456696,-1.0,-1.0,,,,,,,,,,,,,,,,,,,,,,,,,,,,,,,,,,,,,,,,,,,,,,,,,,,,,,,,,,,,,,,,,,,,,,,,,,,,,,,,,,,,,,,,,,,,,,,,,,,,,,,2695966,PX4FMU_V1,251760679a4bed86fdb10746062fde2cc23e460f,test,305419904.0
3.06611776352,-0.0515291057527,-0.0706452056766,-0.00251367548481,-0.00193842116278,0.0101269381121,-0.531267166138,-0.720718443394,9.95462036133,0.0,0.0,-0.0706452056766,0.0,-0.531267166138,-0.720718443394,9.95462036133,-0.00214821659029,-0.00191739061847,0.0103758182377,0.167665153742,0.00785991363227,-0.268934994936,1017.69995117,-36.976688385,28.7999992371,0.0,0.0,0.0,0.0,0.0,0.0,0.0,0.0,0.0,0.0,0.0,0.0,0.0,0,0,0,0.0,0.0,,,,,,,,,,,,,,,,,,,,1.96248865128,0.0114998137578,0.00873482786119,0.0,0,1,0,0.0,0,0,0.0,-0.0,0.0,0.0198019798845,0.99816006422,0.656641602516,-0.998161792755,0.0,7,0,0.0,0.0,0.0,0.0,0.0,0.0,0.0,0.0,,,,15.0935535431,0.086521692574,0.0683591216803,-3,8,0.219246953726,-0.524499893188,4.23999977112,239,77,,,,,,,,,0,0.0,0.0,0.0,0.0,0,0.0,0,0.0,,,,,,,,,,,,,,,,11.4232378006,11.3995933533,-1.0,-1.0,,,,,,,,,,,,,,,,,,,,,,,,,,,,,,,,,,,,,,,,,,,,,,,,,,,,,,,,,,,,,,,,,,,,,,,,,,,,,,,,,,,,,,,,,,,,,,,,,,,,,,,2717804,PX4FMU_V1,251760679a4bed86fdb10746062fde2cc23e460f,test,305419904.0
3.06609249115,-0.0515331663191,-0.0706953629851,-0.00261987745762,-0.00198477273807,0.0107077006251,-0.543018817902,-0.745562195778,9.95431232452,0.0,0.0,-0.0706953629851,0.0,-0.543018817902,-0.745562195778,9.95431232452,-0.00286617828533,-0.0016289363848,0.0107412692159,0.171334668994,0.0111888535321,-0.264484494925,1017.75994873,-37.474357605,28.8199996948,0.0,0.0,0.0,0.0,0.0,0.0,0.0,0.0,0.0,0.0,0.0,0.0,0.0,0,0,0,0.0,0.0,,,,,,,,,,,,,,,,,,,,1.96246898174,0.0115388650447,0.00864789169282,0.0,0,1,0,0.0,0,0,0.0,-0.0,0.0,0.0198019798845,0.99816006422,0.656641602516,-0.998161792755,0.0,7,0,0.0,0.0,0.0,0.0,0.0,0.0,0.0,0.0,,,,15.093296051,0.0867757275701,0.0683603063226,-4,9,0.271193355322,-0.629527926445,4.23999977112,235,77,,,,,,,,,0,0.0,0.0,0.0,0.0,0,0.0,0,0.0,,,,,,,,,,,,,,,,11.4148569107,11.3996238708,-1.0,-1.0,,,,,,,,,,,,,,,,,,,,,,,,,,,,,,,,,,,,,,,,,,,,,,,,,,,,,,,,,,,,,,,,,,,,,,,,,,,,,,,,,,,,,,,,,,,,,,,,,,,,,,,2738318,PX4FMU_V1,251760679a4bed86fdb10746062fde2cc23e460f,test,305419904.0
3.06606078148,-0.0515237823129,-0.0704250782728,-0.00280900020152,-0.00146166968625,0.0107964221388,-0.515795588493,-0.730776667595,9.95477390289,0.0,0.0,-0.0704250782728,0.0,-0.515795588493,-0.730776667595,9.95477390289,-0.00297718355432,-0.00154990237206,0.0107787242159,0.171334668994,0.0145177915692,-0.26626470685,1017.75994873,-37.474357605,28.8199996948,0.0,0.0,0.0,0.0,0.0,0.0,0.0,0.0,0.0,0.0,0.0,0.0,0.0,0,0,0,0.0,0.0,,,,,,,,,,,,,,,,,,,,1.96245551109,0.0114415325224,0.00863254163414,0.0,0,1,0,0.0,0,0,0.0,-0.0,0.0,0.0222772285342,0.99816006422,0.656641602516,-0.998161792755,0.0,7,0,0.0,0.0,0.0,0.0,0.0,0.0,0.0,0.0,,,,15.093003273,0.0865501239896,0.0683466941118,-3,9,0.226392164826,-0.54060781002,4.23999977112,219,77,,,,,,,,,0,0.0,0.0,0.0,0.0,0,0.0,0,0.0,,,,,,,,,,,,,,,,11.4148569107,11.3996543884,-1.0,-1.0,,,,,,,,,,,,,,,,,,,,,,,,,,,,,,,,,,,,,,,,,,,,,,,,,,,,,,,,,,,,,,,,,,,,,,,,,,,,,,,,,,,,,,,,,,,,,,,,,,,,,,,2759446,PX4FMU_V1,251760679a4bed86fdb10746062fde2cc23e460f,test,305419904.0
3.06604886055,-0.0515181683004,-0.0701287016273,-0.00271024019457,-0.002023891313,0.0108824502677,-0.53574347496,-0.729477584362,9.95565986633,0.0,0.0,-0.0701641589403,0.0,-0.53574347496,-0.729477584362,9.95565986633,-0.00259111030027,-0.00209808372892,0.0108708851039,0.16858252883,0.0103566180915,-0.26715478301,1017.73999023,-37.3084716797,28.8099994659,0.0,0.0,0.0,0.0,0.0,0.0,0.0,0.0,0.0,0.0,0.0,0.0,0.0,0,0,0,0.0,0.0,,,,,,,,,,,,,,,,,,,,1.96239733696,0.0114344926551,0.00863216072321,0.0,0,1,0,0.0,0,0,0.0,-0.0,0.0,0.0222772285342,0.99816006422,0.656641602516,-0.998161792755,0.0,7,0,0.0,0.0,0.0,0.0,0.0,0.0,0.0,0.0,,,,15.0928821564,0.0859557241201,0.0683388933539,-7,8,0.410211622715,-0.511523127556,4.23999977112,231,77,,,,,,,,,0,0.0,0.0,0.0,0.0,0,0.0,0,0.0,,,,,,,,,,,,,,,,11.4232378006,11.3996934891,-1.0,-1.0,,,,,,,,,,,,,,,,,,,,,,,,,,,,,,,,,,,,,,,,,,,,,,,,,,,,,,,,,,,,,,,,,,,,,,,,,,,,,,,,,,,,,,,,,,,,,,,,,,,,,,,2780664,PX4FMU_V1,251760679a4bed86fdb10746062fde2cc23e460f,test,305419904.0
3.06603145599,-0.0515194498003,-0.0698775425553,-0.00279197888449,-0.00213904050179,0.0109734507278,-0.539327681065,-0.726494789124,9.95676994324,0.0,0.0,-0.0698775425553,0.0,-0.539327681065,-0.726494789124,9.95676994324,-0.00320310052484,-0.00203328905627,0.0112124700099,0.171334668994,0.0111888535321,-0.26715478301,1017.70996094,-37.0596351624,28.8099994659,0.0,0.0,0.0,0.0,0.0,0.0,0.0,0.0,0.0,0.0,0.0,0.0,0.0,0,0,0,0.0,0.0,,,,,,,,,,,,,,,,,,,,1.96241998672,0.0115458760411,0.00860529951751,0.0,0,1,0,0.0,0,0,0.0,-0.0,0.0,0.0198019798845,0.99816006422,0.656641602516,-0.996323525906,0.0,7,0,0.0,0.0,0.0,0.0,0.0,0.0,0.0,0.0,,,,15.0927467346,0.0866753980517,0.0683421120048,-3,10,0.220530301332,-0.601872324944,4.23799991608,227,77,,,,,,,,,0,0.0,0.0,0.0,0.0,0,0.0,0,0.0,,,,,,,,,,,,,,,,11.4232378006,11.3997173309,-1.0,-1.0,,,,,,,,,,,,,,,,,,,,,,,,,,,,,,,,,,,,,,,,,,,,,,,,,,,,,,,,,,,,,,,,,,,,,,,,,,,,,,,,,,,,,,,,,,,,,,,,,,,,,,,2802737,PX4FMU_V1,251760679a4bed86fdb10746062fde2cc23e460f,test,305419904.0
3.06601405144,-0.051516957581,-0.0699811950326,-0.00275748269632,-0.00172303093132,0.0108179170638,-0.524731874466,-0.725949943066,9.96898841858,0.0,0.0,-0.0699811950326,0.0,-0.524731874466,-0.725949943066,9.96898841858,-0.0029835079331,-0.00173955271021,0.0104846023023,0.167665153742,0.0120210880414,-0.268044888973,1017.70996094,-37.0596351624,28.8099994659,0.0,0.0,0.0,0.0,0.0,0.0,0.0,0.0,0.0,0.0,0.0,0.0,0.0,0,0,0,0.0,0.0,,,,,,,,,,,,,,,,,,,,1.96239280701,0.0114624621347,0.00862723775208,0.0,0,1,0,0.0,0,0,0.0,-0.0,0.0,0.0198019798845,1.0,0.656641602516,-0.998161792755,0.0,7,0,0.0,0.0,0.0,0.0,0.0,0.0,0.0,0.0,,,,15.0925731659,0.0864497572184,0.0683328285813,-5,7,0.291244119406,-0.435224115849,4.23799991608,215,77,,,,,,,,,0,0.0,0.0,0.0,0.0,0,0.0,0,0.0,,,,,,,,,,,,,,,,11.4148569107,11.3997478485,-1.0,-1.0,,,,,,,,,,,,,,,,,,,,,,,,,,,,,,,,,,,,,,,,,,,,,,,,,,,,,,,,,,,,,,,,,,,,,,,,,,,,,,,,,,,,,,,,,,,,,,,,,,,,,,,2824258,PX4FMU_V1,251760679a4bed86fdb10746062fde2cc23e460f,test,305419904.0
3.06599712372,-0.0515016950667,-0.0693123266101,-0.00267935055308,-0.00196002121083,0.0108972154558,-0.528409004211,-0.728860020638,9.98859596252,0.0,0.0,-0.0693123266101,0.0,-0.528409004211,-0.728860020638,9.98859596252,-0.00260088220239,-0.00166477286257,0.0113135706633,0.16858252883,0.0136855570599,-0.268934994936,1017.7699585,-37.5573005676,28.8199996948,0.0,0.0,0.0,0.0,0.0,0.0,0.0,0.0,0.0,0.0,0.0,0.0,0.0,0,0,0,0.0,0.0,,,,,,,,,,,,,,,,,,,,1.96236801147,0.0114909959957,0.00861267466098,0.0,0,1,0,0.0,0,0,0.0,-0.0,0.0,0.0198019798845,1.0,0.656641602516,-0.998161792755,0.0,7,0,0.0,0.0,0.0,0.0,0.0,0.0,0.0,0.0,,,,15.0924596786,0.0864322558045,0.0683150440454,-2,8,0.188083767891,-0.512592852116,4.23799991608,227,77,,,,,,,,,0,0.0,0.0,0.0,0.0,0,0.0,0,0.0,,,,,,,,,,,,,,,,11.4232378006,11.3997869492,-1.0,-1.0,,,,,,,,,,,,,,,,,,,,,,,,,,,,,,,,,,,,,,,,,,,,,,,,,,,,,,,,,,,,,,,,,,,,,,,,,,,,,,,,,,,,,,,,,,,,,,,,,,,,,,,2846325,PX4FMU_V1,251760679a4bed86fdb10746062fde2cc23e460f,test,305419904.0
3.06598472595,-0.051509924233,-0.0691692233086,-0.00250964262523,-0.0014069880126,0.0103124333546,-0.535858988762,-0.720740973949,9.98410797119,0.0,0.0,-0.0691692233086,0.0,-0.535858988762,-0.720740973949,9.98410797119,-0.00188798783347,-0.00152160599828,0.00971362181008,0.170417279005,0.0128533225507,-0.265374600887,1017.72998047,-37.2255249023,28.8199996948,0.0,0.0,0.0,0.0,0.0,0.0,0.0,0.0,0.0,0.0,0.0,0.0,0.0,0,0,0,0.0,0.0,,,,,,,,,,,,,,,,,,,,1.96232783794,0.0114068128169,0.00870180875063,0.0,0,1,0,0.0,0,0,0.0,-0.0,0.0,0.0198019798845,1.0,0.656641602516,-0.998161792755,0.0,7,0,0.0,0.0,0.0,0.0,0.0,0.0,0.0,0.0,,,,15.0923204422,0.0863377302885,0.0683244913816,-4,7,0.270344138145,-0.503311991692,4.23799991608,247,77,,,,,,,,,0,0.0,0.0,0.0,0.0,0,0.0,0,0.0,,,,,,,,,,,,,,,,11.4232378006,11.3998260498,-1.0,-1.0,,,,,,,,,,,,,,,,,,,,,,,,,,,,,,,,,,,,,,,,,,,,,,,,,,,,,,,,,,,,,,,,,,,,,,,,,,,,,,,,,,,,,,,,,,,,,,,,,,,,,,,2867289,PX4FMU_V1,251760679a4bed86fdb10746062fde2cc23e460f,test,305419904.0
3.06597089767,-0.0515081323683,-0.0689807981253,-0.00241888849996,-0.00221944274381,0.0105228768662,-0.532081246376,-0.741774499416,9.95132541656,0.0,0.0,-0.0689807981253,0.0,-0.532081246376,-0.741774499416,9.95132541656,-0.0027718488127,-0.00235785683617,0.0107792895287,0.16858252883,0.0120210880414,-0.268044888973,1017.7199707,-37.1425819397,28.8299999237,0.0,0.0,0.0,0.0,0.0,0.0,0.0,0.0,0.0,0.0,0.0,0.0,0.0,0,0,0,0.0,0.0,,,,,,,,,,,,,,,,,,,,1.96229946613,0.0114822359756,0.00866968650371,0.0,0,1,0,0.0,0,0,0.0,-0.0,0.0,0.0198019798845,1.0,0.656641602516,-0.998161792755,0.0,7,0,0.0,0.0,0.0,0.0,0.0,0.0,0.0,0.0,,,,15.0921936035,0.0861054509878,0.0683207809925,-4,10,0.311421811581,-0.641733765602,4.23799991608,227,77,,,,,,,,,0,0.0,0.0,0.0,0.0,0,0.0,0,0.0,,,,,,,,,,,,,,,,11.4148569107,11.3998413086,-1.0,-1.0,,,,,,,,,,,,,,,,,,,,,,,,,,,,,,,,,,,,,,,,,,,,,,,,,,,,,,,,,,,,,,,,,,,,,,,,,,,,,,,,,,,,,,,,,,,,,,,,,,,,,,,2888525,PX4FMU_V1,251760679a4bed86fdb10746062fde2cc23e460f,test,305419904.0
3.06593179703,-0.0515066720545,-0.0685868263245,-0.00242643221281,-0.00151360710151,0.0111865419894,-0.53666895628,-0.747590243816,9.92603683472,0.0,0.0,-0.0685868263245,0.0,-0.53666895628,-0.747590243816,9.92603683472,-0.00232363422401,-0.00118093052879,0.0110302120447,0.170417279005,0.0128533225507,-0.268044888973,1017.69995117,-36.976688385,28.8299999237,0.0,0.0,0.0,0.0,0.0,0.0,0.0,0.0,0.0,0.0,0.0,0.0,0.0,0,0,0,0.0,0.0,,,,,,,,,,,,,,,,,,,,1.96225261688,0.0114694237709,0.00856877863407,0.0,0,1,0,0.0,0,0,0.0,-0.0,0.0,0.0198019798845,1.0,0.656641602516,-0.998161792755,0.0,7,0,0.0,0.0,0.0,0.0,0.0,0.0,0.0,0.0,,,,15.0918254852,0.0867127329111,0.0683117285371,-6,6,0.397803902626,-0.431247800589,4.23400020599,235,77,,,,,,,,,0,0.0,0.0,0.0,0.0,0,0.0,0,0.0,,,,,,,,,,,,,,,,11.4148569107,11.3998718262,-1.0,-1.0,,,,,,,,,,,,,,,,,,,,,,,,,,,,,,,,,,,,,,,,,,,,,,,,,,,,,,,,,,,,,,,,,,,,,,,,,,,,,,,,,,,,,,,,,,,,,,,,,,,,,,,2910441,PX4FMU_V1,251760679a4bed86fdb10746062fde2cc23e460f,test,305419904.0
3.0659160614,-0.0515115074813,-0.0679540410638,-0.00244672899134,-0.00184088014066,0.00993042159826,-0.520994544029,-0.719699144363,9.9335641861,0.0,0.0,-0.0679540410638,0.0,-0.520994544029,-0.719699144363,9.9335641861,-0.00214951322414,-0.0023459084332,0.00946276355535,0.167665153742,0.0136855570599,-0.26715478301,1017.7699585,-37.5573005676,28.8400001526,0.0,0.0,0.0,0.0,0.0,0.0,0.0,0.0,0.0,0.0,0.0,0.0,0.0,0,0,0,0.0,0.0,,,,,,,,,,,,,,,,,,,,1.96223449707,0.0115143777803,0.00875778589398,0.0,0,1,0,0.0,0,0,0.0,-0.0,0.0,0.0222772285342,0.99816006422,0.656641602516,-0.998161792755,0.0,7,0,0.0,0.0,0.0,0.0,0.0,0.0,0.0,0.0,,,,15.0916652679,0.0867312550545,0.0683156549931,-4,8,0.245350956917,-0.484959572554,4.23400020599,243,77,,,,,,,,,0,0.0,0.0,0.0,0.0,0,0.0,0,0.0,,,,,,,,,,,,,,,,11.4232378006,11.3999185562,-1.0,-1.0,,,,,,,,,,,,,,,,,,,,,,,,,,,,,,,,,,,,,,,,,,,,,,,,,,,,,,,,,,,,,,,,,,,,,,,,,,,,,,,,,,,,,,,,,,,,,,,,,,,,,,,2930879,PX4FMU_V1,251760679a4bed86fdb10746062fde2cc23e460f,test,305419904.0
3.06591725349,-0.0514903441072,-0.067908629775,-0.00189697812311,-0.00202119303867,0.0096931271255,-0.535979807377,-0.724323630333,9.94159603119,0.0,0.0,-0.067908629775,0.0,-0.535979807377,-0.724323630333,9.94159603119,-0.00198547821492,-0.00161282764748,0.0104039842263,0.166747763753,0.0120210880414,-0.26626470685,1017.73999023,-37.3084716797,28.8400001526,0.0,0.0,0.0,0.0,0.0,0.0,0.0,0.0,0.0,0.0,0.0,0.0,0.0,0,0,0,0.0,0.0,,,,,,,,,,,,,,,,,,,,1.96217095852,0.0115177938715,0.00878978241235,0.0,0,1,0,0.0,0,0,0.0,-0.0,0.0,0.0222772285342,0.99816006422,0.656641602516,-0.998161792755,0.0,7,0,0.0,0.0,0.0,0.0,0.0,0.0,0.0,0.0,,,,15.0917263031,0.0865772217512,0.0682916715741,-6,7,0.399553447962,-0.491117715836,4.23400020599,223,77,,,,,,,,,0,0.0,0.0,0.0,0.0,0,0.0,0,0.0,,,,,,,,,,,,,,,,11.4232378006,11.3999643326,-1.0,-1.0,,,,,,,,,,,,,,,,,,,,,,,,,,,,,,,,,,,,,,,,,,,,,,,,,,,,,,,,,,,,,,,,,,,,,,,,,,,,,,,,,,,,,,,,,,,,,,,,,,,,,,,2952089,PX4FMU_V1,251760679a4bed86fdb10746062fde2cc23e460f,test,305419904.0
3.06587338448,-0.0515011660755,-0.0692353099585,-0.00325418985449,-0.00147681310773,0.0109709054232,-0.521219432354,-0.748935520649,9.95252227783,0.0,0.0,-0.0692353099585,0.0,-0.521219432354,-0.748935520649,9.95252227783,-0.00329646095634,-0.00191466789693,0.011293114163,0.170417279005,0.00453097466379,-0.271605342627,1017.7199707,-37.1425819397,28.8400001526,0.0,0.0,0.0,0.0,0.0,0.0,0.0,0.0,0.0,0.0,0.0,0.0,0.0,0,0,0,0.0,0.0,,,,,,,,,,,,,,,,,,,,1.96228981018,0.0114681962878,0.00859955325723,0.0,0,1,0,0.799990952015,0,0,0.0,-0.0,0.0,0.0198019798845,0.99816006422,0.656641602516,-0.996323525906,0.0,7,0,0.0,0.0,0.0,0.0,0.0,0.0,0.0,0.0,,,,15.0912837982,0.0867400914431,0.0683012604713,-5,7,0.332831680775,-0.459259688854,4.23400020599,227,77,,,,,,,,,0,0.0,0.0,0.0,0.0,0,0.0,0,0.0,,,,,,,,,,,,,,,,11.4232378006,11.4000101089,-1.0,-1.0,,,,,,,,,,,,,,,,,,,,,,,,,,,,,,,,,,,,,,,,,,,,,,,,,,,,,,,,,,,,,,,,,,,,,,,,,,,,,,,,,,,,,,,,,,,,,,,,,,,,,,,2974590,PX4FMU_V1,251760679a4bed86fdb10746062fde2cc23e460f,test,305419904.0
3.06584048271,-0.0514817684889,-0.0694473981857,-0.00278544332832,-0.00220479839481,0.0101795345545,-0.526323080063,-0.733868479729,9.98208427429,0.0,0.0,-0.0694473981857,0.0,-0.526323080063,-0.733868479729,9.98208427429,-0.00241718348116,-0.00214737071656,0.0100689968094,0.169499918818,0.0111888535321,-0.26715478301,1017.73999023,-37.3084716797,28.8400001526,0.0,0.0,0.0,0.0,0.0,0.0,0.0,0.0,0.0,0.0,0.0,0.0,0.0,0,0,0,0.0,0.0,,,,,,,,,,,,,,,,,,,,1.96219229698,0.0115610500798,0.00871372967958,0.0,0,1,0,0.799990952015,0,0,0.0,-0.0,0.0,0.0222772285342,0.99816006422,0.656641602516,-0.998161792755,0.0,7,0,0.0,0.0,0.0,0.0,0.0,0.0,0.0,0.0,,,,15.0910015106,0.086726360023,0.0682710632682,-6,6,0.411743849516,-0.396511435509,4.23400020599,243,77,,,,,,,,,0,0.0,0.0,0.0,0.0,0,0.0,0,0.0,,,,,,,,,,,,,,,,11.4148569107,11.4000253677,-1.0,-1.0,,,,,,,,,,,,,,,,,,,,,,,,,,,,,,,,,,,,,,,,,,,,,,,,,,,,,,,,,,,,,,,,,,,,,,,,,,,,,,,,,,,,,,,,,,,,,,,,,,,,,,,2995332,PX4FMU_V1,251760679a4bed86fdb10746062fde2cc23e460f,test,305419904.0
3.06582403183,-0.0514578744769,-0.0697764381766,-0.00286486651748,-0.00235915719531,0.00961912143975,-0.519939720631,-0.727172732353,9.96282482147,0.0,0.0,-0.0697764381766,0.0,-0.519939720631,-0.727172732353,9.96282482147,-0.00292956782505,-0.00255227740854,0.00945375300944,0.167665153742,0.00785991363227,-0.268934994936,1017.72998047,-37.2255249023,28.8400001526,0.0,0.0,0.0,0.0,0.0,0.0,0.0,0.0,0.0,0.0,0.0,0.0,0.0,0,0,0,0.0,0.0,,,,,,,,,,,,,,,,,,,,1.96219015121,0.0115615911782,0.00879286509007,0.0,0,1,0,0.799990952015,0,0,0.0,-0.0,0.0,0.0222772285342,0.99816006422,0.656641602516,-0.998161792755,0.0,7,0,0.0,0.0,0.0,0.0,0.0,0.0,0.0,0.0,,,,15.0909061432,0.0865761637688,0.0682382211089,-4,3,0.27411365509,-0.234409660101,4.25299978256,227,77,,,,,,,,,0,0.0,0.0,0.0,0.0,0,0.0,0,0.0,,,,,,,,,,,,,,,,11.4232378006,11.4000711441,-1.0,-1.0,,,,,,,,,,,,,,,,,,,,,,,,,,,,,,,,,,,,,,,,,,,,,,,,,,,,,,,,,,,,,,,,,,,,,,,,,,,,,,,,,,,,,,,,,,,,,,,,,,,,,,,3016649,PX4FMU_V1,251760679a4bed86fdb10746062fde2cc23e460f,test,305419904.0
3.0658056736,-0.0514374673367,-0.0706422477961,-0.00259960186668,-0.0025491588749,0.0102187814191,-0.538148164749,-0.720510423183,9.92749500275,0.0,0.0,-0.0706422477961,0.0,-0.538148164749,-0.720510423183,9.92749500275,-0.00225355918519,-0.00243923580274,0.0101446341723,0.171334668994,-0.000462434603833,-0.273385554552,1017.72998047,-37.2255249023,28.8400001526,0.0,0.0,0.0,0.0,0.0,0.0,0.0,0.0,0.0,0.0,0.0,0.0,0.0,0,0,0,0.0,0.0,,,,,,,,,,,,,,,,,,,,1.96213960648,0.0115829920396,0.00869909673929,0.0,0,1,0,0.799990952015,0,0,0.0,-0.0,0.0,0.0198019798845,0.99816006422,0.656641602516,-0.996323525906,0.0,7,0,0.0,0.0,0.0,0.0,0.0,0.0,0.0,0.0,,,,15.0907821655,0.0865507870913,0.0682127550244,-5,6,0.306391119957,-0.353471279144,4.25299978256,235,77,,,,,,,,,0,0.0,0.0,0.0,0.0,0,0.0,0,0.0,,,,,,,,,,,,,,,,11.4232378006,11.4001169205,-1.0,-1.0,,,,,,,,,,,,,,,,,,,,,,,,,,,,,,,,,,,,,,,,,,,,,,,,,,,,,,,,,,,,,,,,,,,,,,,,,,,,,,,,,,,,,,,,,,,,,,,,,,,,,,,3038777,PX4FMU_V1,251760679a4bed86fdb10746062fde2cc23e460f,test,305419904.0
3.06578826904,-0.0514393746853,-0.0702561810613,-0.00202813791111,-0.00182500248775,0.0102958558127,-0.538493871689,-0.75041615963,9.95310020447,0.0,0.0,-0.0702561810613,0.0,-0.538493871689,-0.75041615963,9.95310020447,-0.00191956351046,-0.00147174240556,0.0106120463461,0.172252044082,0.0161822624505,-0.268044888973,1017.70996094,-37.0596351624,28.8400001526,0.0,0.0,0.0,0.0,0.0,0.0,0.0,0.0,0.0,0.0,0.0,0.0,0.0,0,0,0,0.0,0.0,,,,,,,,,,,,,,,,,,,,1.96204292774,0.0114906877279,0.00868755765259,0.0,0,1,0,0.799990952015,0,0,0.0,-0.0,0.0,0.0222772285342,0.99816006422,0.656641602516,-0.998161792755,0.0,7,0,0.0,0.0,0.0,0.0,0.0,0.0,0.0,0.0,,,,15.0906095505,0.0865649059415,0.068212904036,-5,8,0.296216636896,-0.462994337082,4.25299978256,215,77,,,,,,,,,0,0.0,0.0,0.0,0.0,0,0.0,0,0.0,,,,,,,,,,,,,,,,11.4148569107,11.4001455307,-1.0,-1.0,,,,,,,,,,,,,,,,,,,,,,,,,,,,,,,,,,,,,,,,,,,,,,,,,,,,,,,,,,,,,,,,,,,,,,,,,,,,,,,,,,,,,,,,,,,,,,,,,,,,,,,3059784,PX4FMU_V1,251760679a4bed86fdb10746062fde2cc23e460f,test,305419904.0
3.06576061249,-0.0514408200979,-0.0699677243829,-0.00244431523606,-0.00173635070678,0.0105676874518,-0.536335945129,-0.727947711945,9.95821762085,0.0,0.0,-0.0699677243829,0.0,-0.536335945129,-0.727947711945,9.95821762085,-0.00255004083738,-0.00195295771118,0.0101260021329,0.167665153742,0.0120210880414,-0.26715478301,1017.70996094,-37.0596351624,28.8400001526,0.0,0.0,0.0,0.0,0.0,0.0,0.0,0.0,0.0,0.0,0.0,0.0,0.0,0,0,0,0.0,0.0,,,,,,,,,,,,,,,,,,,,1.96206128597,0.0114819612354,0.00864700973034,0.0,0,1,0,0.799990952015,0,0,0.0,-0.0,0.0,0.0198019798845,0.99816006422,0.65914785862,-1.0,0.0,7,0,0.0,0.0,0.0,0.0,0.0,0.0,0.0,0.0,,,,15.0903358459,0.0865864306688,0.0682144165039,-5,5,0.341493189335,-0.321757525206,4.25299978256,239,77,,,,,,,,,0,0.0,0.0,0.0,0.0,0,0.0,0,0.0,,,,,,,,,,,,,,,,11.4232378006,11.4001684189,-1.0,-1.0,,,,,,,,,,,,,,,,,,,,,,,,,,,,,,,,,,,,,,,,,,,,,,,,,,,,,,,,,,,,,,,,,,,,,,,,,,,,,,,,,,,,,,,,,,,,,,,,,,,,,,,3080984,PX4FMU_V1,251760679a4bed86fdb10746062fde2cc23e460f,test,305419904.0
3.06573796272,-0.0514404773712,-0.0697377994657,-0.00265434617177,-0.00152698345482,0.0103573193774,-0.517058610916,-0.733788251877,9.94935798645,0.0,0.0,-0.0697377994657,0.0,-0.517058610916,-0.733788251877,9.94935798645,-0.0029394805897,-0.00155207072385,0.0102739110589,0.169499918818,0.00952438358217,-0.26626470685,1017.7199707,-37.1425819397,28.8499984741,0.0,0.0,0.0,0.0,0.0,0.0,0.0,0.0,0.0,0.0,0.0,0.0,0.0,0,0,0,0.0,0.0,,,,,,,,,,,,,,,,,,,,1.96206104755,0.0114411786199,0.00867795757949,0.0,0,1,0,0.799990952015,0,0,0.0,-0.0,0.0,0.0198019798845,0.99816006422,0.65914785862,-1.0,0.0,7,0,0.0,0.0,0.0,0.0,0.0,0.0,0.0,0.0,,,,15.0901241302,0.0864820852876,0.0682103708386,-5,6,0.365907669067,-0.4404745996,4.22399997711,231,77,,,,,,,,,0,0.0,0.0,0.0,0.0,0,0.0,0,0.0,,,,,,,,,,,,,,,,11.4232378006,11.4002141953,-1.0,-1.0,,,,,,,,,,,,,,,,,,,,,,,,,,,,,,,,,,,,,,,,,,,,,,,,,,,,,,,,,,,,,,,,,,,,,,,,,,,,,,,,,,,,,,,,,,,,,,,,,,,,,,,3102820,PX4FMU_V1,251760679a4bed86fdb10746062fde2cc23e460f,test,305419904.0
3.06572413445,-0.0514165237546,-0.0695220828056,-0.00268077617511,-0.00244293594733,0.0094627821818,-0.522820353508,-0.741058170795,9.9615278244,0.0,0.0,-0.0695220828056,0.0,-0.522820353508,-0.741058170795,9.9615278244,-0.0025718989782,-0.00280332425609,0.00949300266802,0.170417279005,0.0120210880414,-0.264484494925,1017.72998047,-37.2255249023,28.8499984741,0.0,0.0,0.0,0.0,0.0,0.0,0.0,0.0,0.0,0.0,0.0,0.0,0.0,0,0,0,0.0,0.0,,,,,,,,,,,,,,,,,,,,1.96205627918,0.0115555832162,0.00880764983594,0.0,0,1,0,0.799990952015,0,0,0.0,-0.0,0.0,0.0198019798845,1.0,0.656641602516,-0.998161792755,0.0,7,0,0.0,0.0,0.0,0.0,0.0,0.0,0.0,0.0,,,,15.0900602341,0.0864461734891,0.0681804418564,-4,4,0.276265203953,-0.29528939724,4.22399997711,227,77,,,,,,,,,0,0.0,0.0,0.0,0.0,0,0.0,0,0.0,,,,,,,,,,,,,,,,11.4148569107,11.4002428055,-1.0,-1.0,,,,,,,,,,,,,,,,,,,,,,,,,,,,,,,,,,,,,,,,,,,,,,,,,,,,,,,,,,,,,,,,,,,,,,,,,,,,,,,,,,,,,,,,,,,,,,,,,,,,,,,3123362,PX4FMU_V1,251760679a4bed86fdb10746062fde2cc23e460f,test,305419904.0
3.0656914711,-0.051396869123,-0.0695228129625,-0.00257503031753,-0.00234300387092,0.0109232449904,-0.528205990791,-0.743816137314,9.93818569183,0.0,0.0,-0.0695228129625,0.0,-0.528205990791,-0.743816137314,9.93818569183,-0.00261164456606,-0.00196650158614,0.0113557875156,0.169499918818,0.0120210880414,-0.26715478301,1017.7699585,-37.5573005676,28.8499984741,0.0,0.0,0.0,0.0,0.0,0.0,0.0,0.0,0.0,0.0,0.0,0.0,0.0,0,0,0,0.0,0.0,,,,,,,,,,,,,,,,,,,,1.96200609207,0.011540774256,0.00858391728252,0.0,0,1,0,0.799990952015,0,0,0.0,-0.0,0.0,0.0222772285342,0.99816006422,0.656641602516,-0.998161792755,0.0,7,0,0.0,0.0,0.0,0.0,0.0,0.0,0.0,0.0,,,,15.0897798538,0.0864321812987,0.0681493580341,-5,8,0.35472548008,-0.524124324322,4.22399997711,227,77,,,,,,,,,0,0.0,0.0,0.0,0.0,0,0.0,0,0.0,,,,,,,,,,,,,,,,11.4232378006,11.4002885818,-1.0,-1.0,,,,,,,,,,,,,,,,,,,,,,,,,,,,,,,,,,,,,,,,,,,,,,,,,,,,,,,,,,,,,,,,,,,,,,,,,,,,,,,,,,,,,,,,,,,,,,,,,,,,,,,3144704,PX4FMU_V1,251760679a4bed86fdb10746062fde2cc23e460f,test,305419904.0
3.06567621231,-0.0513953641057,-0.0699889436364,-0.00227535911836,-0.00127161073033,0.011060250923,-0.52601981163,-0.718917906284,9.95263957977,0.0,0.0,-0.0699889436364,0.0,-0.52601981163,-0.718917906284,9.95263957977,-0.00216279528104,-0.00135522487108,0.010970806703,0.170417279005,0.00286650471389,-0.269825100899,1017.7199707,-37.1425819397,28.8499984741,0.0,0.0,0.0,0.0,0.0,0.0,0.0,0.0,0.0,0.0,0.0,0.0,0.0,0,0,0,0.0,0.0,,,,,,,,,,,,,,,,,,,,1.96195018291,0.0113869057968,0.00856307521462,0.0,0,1,0,0.799990952015,0,0,0.0,-0.0,0.0,0.0198019798845,1.0,0.656641602516,-0.998161792755,0.0,7,0,0.0,0.0,0.0,0.0,0.0,0.0,0.0,0.0,,,,15.0896492004,0.0863199755549,0.0681474208832,-4,7,0.256862968206,-0.463557004929,4.22399997711,227,77,,,,,,,,,0,0.0,0.0,0.0,0.0,0,0.0,0,0.0,,,,,,,,,,,,,,,,11.4148569107,11.4003257751,-1.0,-1.0,,,,,,,,,,,,,,,,,,,,,,,,,,,,,,,,,,,,,,,,,,,,,,,,,,,,,,,,,,,,,,,,,,,,,,,,,,,,,,,,,,,,,,,,,,,,,,,,,,,,,,,3166892,PX4FMU_V1,251760679a4bed86fdb10746062fde2cc23e460f,test,305419904.0
3.06567668915,-0.0513902269304,-0.0697095617652,-0.00228025950491,-0.00132894830313,0.0101186307147,-0.525090694427,-0.741985797882,9.95366382599,0.0,0.0,-0.0697095617652,0.0,-0.525090694427,-0.741985797882,9.95366382599,-0.00230939080939,-0.00140806555282,0.0103524373844,0.169499918818,0.0120210880414,-0.26626470685,1017.77996826,-37.6402397156,28.8499984741,0.0,0.0,0.0,0.0,0.0,0.0,0.0,0.0,0.0,0.0,0.0,0.0,0.0,0,0,0,0.0,0.0,,,,,,,,,,,,,,,,,,,,1.96195244789,0.0114386146888,0.00870320852846,0.0,0,1,0,0.800216674805,0,0,0.0,-0.0,0.0,0.0222772285342,0.99816006422,0.656641602516,-0.998161792755,0.0,7,0,0.0,0.0,0.0,0.0,0.0,0.0,0.0,0.0,,,,15.0896625519,0.086660400033,0.0681400150061,-5,7,0.305911898613,-0.422326028347,4.22399997711,231,77,,,,,,,,,0,0.0,0.0,0.0,0.0,0,0.0,0,0.0,,,,,,,,,,,,,,,,11.4232378006,11.4003486633,-1.0,-1.0,,,,,,,,,,,,,,,,,,,,,,,,,,,,,,,,,,,,,,,,,,,,,,,,,,,,,,,,,,,,,,,,,,,,,,,,,,,,,,,,,,,,,,,,,,,,,,,,,,,,,,,3187886,PX4FMU_V1,251760679a4bed86fdb10746062fde2cc23e460f,test,305419904.0
3.06565976143,-0.0513939000666,-0.0696741044521,-0.00246270047501,-0.0014730761759,0.010175999254,-0.538296699524,-0.72470998764,9.95644378662,0.0,0.0,-0.0696741044521,0.0,-0.538296699524,-0.72470998764,9.95644378662,-0.00240351073444,-0.00145658652764,0.0102022094652,0.166747763753,0.00952438358217,-0.26715478301,1017.7199707,-37.1425819397,28.8499984741,0.0,0.0,0.0,0.0,0.0,0.0,0.0,0.0,0.0,0.0,0.0,0.0,0.0,0,0,0,0.0,0.0,,,,,,,,,,,,,,,,,,,,1.96195352077,0.0114445472136,0.00869482196867,0.0,0,1,0,0.800216674805,0,0,0.0,-0.0,0.0,0.0222772285342,0.99816006422,0.656641602516,-0.998161792755,0.0,7,0,0.0,0.0,0.0,0.0,0.0,0.0,0.0,0.0,,,,15.0894880295,0.0865619033575,0.0681414753199,-4,6,0.277588963509,-0.392219513655,4.24399995804,239,77,,,,,,,,,0,0.0,0.0,0.0,0.0,0,0.0,0,0.0,,,,,,,,,,,,,,,,11.4148569107,11.4003858566,-1.0,-1.0,,,,,,,,,,,,,,,,,,,,,,,,,,,,,,,,,,,,,,,,,,,,,,,,,,,,,,,,,,,,,,,,,,,,,,,,,,,,,,,,,,,,,,,,,,,,,,,,,,,,,,,3209241,PX4FMU_V1,251760679a4bed86fdb10746062fde2cc23e460f,test,305419904.0
3.06566119194,-0.0514247529209,-0.0691445767879,-0.00196983828209,-0.000929098227061,0.0111710131168,-0.547069847584,-0.717119932175,9.95288848877,0.0,0.0,-0.0691445767879,0.0,-0.547069847584,-0.717119932175,9.95288848877,-0.00189169042278,-0.00117436377332,0.0112512400374,0.171334668994,0.0136855570599,-0.263594388962,1017.7199707,-37.1425819397,28.8499984741,0.0,0.0,0.0,0.0,0.0,0.0,0.0,0.0,0.0,0.0,0.0,0.0,0.0,0,0,0,0.0,0.0,,,,,,,,,,,,,,,,,,,,1.96188259125,0.0113659044728,0.00855183694512,0.0,0,1,0,0.800216674805,0,0,0.0,-0.0,0.0,0.0198019798845,1.0,0.656641602516,-0.998161792755,0.0,7,0,0.0,0.0,0.0,0.0,0.0,0.0,0.0,0.0,,,,15.0894346237,0.0865009427071,0.0681832581758,-4,7,0.235345155001,-0.440115869045,4.24399995804,223,77,,,,,,,,,0,0.0,0.0,0.0,0.0,0,0.0,0,0.0,,,,,,,,,,,,,,,,11.4148569107,11.4004230499,-1.0,-1.0,,,,,,,,,,,,,,,,,,,,,,,,,,,,,,,,,,,,,,,,,,,,,,,,,,,,,,,,,,,,,,,,,,,,,,,,,,,,,,,,,,,,,,,,,,,,,,,,,,,,,,,3232475,PX4FMU_V1,251760679a4bed86fdb10746062fde2cc23e460f,test,305419904.0
3.06565666199,-0.0514356605709,-0.06862732023,-0.00231036636978,-0.00176452053711,0.0102524235845,-0.537189006805,-0.73567700386,9.96314334869,0.0,0.0,-0.06862732023,0.0,-0.537189006805,-0.73567700386,9.96314334869,-0.00237018289044,-0.00210049399175,0.00982220098376,0.170417279005,0.0136855570599,-0.264484494925,1017.7199707,-37.1425819397,28.859998703,0.0,0.0,0.0,0.0,0.0,0.0,0.0,0.0,0.0,0.0,0.0,0.0,0.0,0,0,0,0.0,0.0,,,,,,,,,,,,,,,,,,,,1.96191692352,0.0114466492087,0.00869069248438,0.0,0,1,0,0.800216674805,0,0,0.0,-0.0,0.0,0.0222772285342,0.99816006422,0.656641602516,-0.998161792755,0.0,7,0,0.0,0.0,0.0,0.0,0.0,0.0,0.0,0.0,,,,15.0893583298,0.0862866267562,0.0681903734803,-4,6,0.272346317768,-0.431896924973,4.24399995804,251,77,,,,,,,,,0,0.0,0.0,0.0,0.0,0,0.0,0,0.0,,,,,,,,,,,,,,,,11.4232378006,11.4004688263,-1.0,-1.0,,,,,,,,,,,,,,,,,,,,,,,,,,,,,,,,,,,,,,,,,,,,,,,,,,,,,,,,,,,,,,,,,,,,,,,,,,,,,,,,,,,,,,,,,,,,,,,,,,,,,,,3253552,PX4FMU_V1,251760679a4bed86fdb10746062fde2cc23e460f,test,305419904.0
3.06562280655,-0.0514389947057,-0.0687381774187,-0.00289905956015,-0.00194466416724,0.0110248262063,-0.530537724495,-0.734367847443,9.93929862976,0.0,0.0,-0.0687381774187,0.0,-0.530537724495,-0.734367847443,9.93929862976,-0.00294506107457,-0.00189436413348,0.0112243285403,0.167665153742,0.0111888535321,-0.265374600887,1017.72998047,-37.2255249023,28.859998703,0.0,0.0,0.0,0.0,0.0,0.0,0.0,0.0,0.0,0.0,0.0,0.0,0.0,0,0,0,0.0,0.0,,,,,,,,,,,,,,,,,,,,1.96195018291,0.0114582302049,0.00857541617006,0.0,0,1,0,0.800216674805,0,0,0.0,-0.0,0.0,0.0222772285342,0.99816006422,0.656641602516,-0.998161792755,0.0,7,0,0.0,0.0,0.0,0.0,0.0,0.0,0.0,0.0,,,,15.0890254974,0.0861955732107,0.0681942626834,-3,7,0.246362060308,-0.487559020519,4.24399995804,231,77,,,,,,,,,0,0.0,0.0,0.0,0.0,0,0.0,0,0.0,,,,,,,,,,,,,,,,11.4232378006,11.4005146027,-1.0,-1.0,,,,,,,,,,,,,,,,,,,,,,,,,,,,,,,,,,,,,,,,,,,,,,,,,,,,,,,,,,,,,,,,,,,,,,,,,,,,,,,,,,,,,,,,,,,,,,,,,,,,,,,3275475,PX4FMU_V1,251760679a4bed86fdb10746062fde2cc23e460f,test,305419904.0
3.06559443474,-0.0514215044677,-0.0684916898608,-0.003030434018,-0.00157540605869,0.0103278253227,-0.505480885506,-0.741820573807,9.96991539001,0.0,0.0,-0.0684916898608,0.0,-0.505480885506,-0.741820573807,9.96991539001,-0.0029008006677,-0.00151559326332,0.0098253916949,0.172252044082,0.0128533225507,-0.272495448589,1017.7699585,-37.5573005676,28.8699989319,0.0,0.0,0.0,0.0,0.0,0.0,0.0,0.0,0.0,0.0,0.0,0.0,0.0,0,0,0,0.0,0.0,,,,,,,,,,,,,,,,,,,,1.96193754673,0.0114846751094,0.00867599900812,0.0,0,1,0,0.800216674805,0,0,0.0,-0.0,0.0,0.0222772285342,0.99816006422,0.656641602516,-0.998161792755,0.0,7,0,0.0,0.0,0.0,0.0,0.0,0.0,0.0,0.0,,,,15.0887966156,0.0867682546377,0.0681678131223,-3,7,0.195025146008,-0.505038380623,4.23600006104,227,77,,,,,,,,,0,0.0,0.0,0.0,0.0,0,0.0,0,0.0,,,,,,,,,,,,,,,,11.4148569107,11.4005289078,-1.0,-1.0,,,,,,,,,,,,,,,,,,,,,,,,,,,,,,,,,,,,,,,,,,,,,,,,,,,,,,,,,,,,,,,,,,,,,,,,,,,,,,,,,,,,,,,,,,,,,,,,,,,,,,,3297067,PX4FMU_V1,251760679a4bed86fdb10746062fde2cc23e460f,test,305419904.0
3.06556868553,-0.0514226853848,-0.0691872760653,-0.00242703151889,-0.0010347107891,0.010581003502,-0.531725168228,-0.735602915287,9.95980834961,0.0,0.0,-0.0691872760653,0.0,-0.531725168228,-0.735602915287,9.95980834961,-0.00232073618099,-0.00111480255146,0.0108867548406,0.16858252883,0.00952438358217,-0.269825100899,1017.73999023,-37.3084716797,28.8699989319,0.0,0.0,0.0,0.0,0.0,0.0,0.0,0.0,0.0,0.0,0.0,0.0,0.0,0,0,0,0.0,0.0,,,,,,,,,,,,,,,,,,,,1.96182632446,0.0113405650482,0.00863830186427,0.0,0,1,0,0.800216674805,0,0,0.0,-0.0,0.0,0.0198019798845,1.0,0.656641602516,-0.998161792755,0.0,7,0,0.0,0.0,0.0,0.0,0.0,0.0,0.0,0.0,,,,15.0885448456,0.0862004011869,0.0681696757674,-3,7,0.197736382484,-0.445123136044,4.23600006104,235,77,,,,,,,,,0,0.0,0.0,0.0,0.0,0,0.0,0,0.0,,,,,,,,,,,,,,,,11.4316186905,11.4005832672,-1.0,-1.0,,,,,,,,,,,,,,,,,,,,,,,,,,,,,,,,,,,,,,,,,,,,,,,,,,,,,,,,,,,,,,,,,,,,,,,,,,,,,,,,,,,,,,,,,,,,,,,,,,,,,,,3319496,PX4FMU_V1,251760679a4bed86fdb10746062fde2cc23e460f,test,305419904.0
3.06553554535,-0.0514346025884,-0.0692415460944,-0.00307065248489,-0.00105322734453,0.0104836095124,-0.522365689278,-0.755493462086,9.9473285675,0.0,0.0,-0.0692415460944,0.0,-0.522365689278,-0.755493462086,9.9473285675,-0.00323363160715,-0.00111748813652,0.010013949126,0.16858252883,0.0128533225507,-0.262704253197,1017.73999023,-37.3084716797,28.8699989319,0.0,0.0,0.0,0.0,0.0,0.0,0.0,0.0,0.0,0.0,0.0,0.0,0.0,0,0,0,0.0,0.0,,,,,,,,,,,,,,,,,,,,1.96186649799,0.0114094903693,0.00865427963436,0.0,0,1,0,0.800216674805,0,0,0.0,-0.0,0.0,0.0198019798845,1.0,0.656641602516,-0.998161792755,0.0,7,0,0.0,0.0,0.0,0.0,0.0,0.0,0.0,0.0,,,,15.0882101059,0.0867120847106,0.0681788027287,-3,6,0.206920564175,-0.407949864864,4.23600006104,231,77,,,,,,,,,0,0.0,0.0,0.0,0.0,0,0.0,0,0.0,,,,,,,,,,,,,,,,11.4232378006,11.4006204605,-1.0,-1.0,,,,,,,,,,,,,,,,,,,,,,,,,,,,,,,,,,,,,,,,,,,,,,,,,,,,,,,,,,,,,,,,,,,,,,,,,,,,,,,,,,,,,,,,,,,,,,,,,,,,,,,3340219,PX4FMU_V1,251760679a4bed86fdb10746062fde2cc23e460f,test,305419904.0
3.06549978256,-0.0514262802899,-0.0690461918712,-0.00263248686679,-0.00142297765706,0.00986549630761,-0.523597478867,-0.744252979755,9.94555664062,0.0,0.0,-0.0690461918712,0.0,-0.523597478867,-0.744252979755,9.94555664062,-0.00248169666156,-0.00166898604948,0.00985603500158,0.169499918818,0.0145177915692,-0.268934994936,1017.72998047,-37.2255249023,28.859998703,0.0,0.0,0.0,0.0,0.0,0.0,0.0,0.0,0.0,0.0,0.0,0.0,0.0,0,0,0,0.0,0.0,,,,,,,,,,,,,,,,,,,,1.96176671982,0.0114735243842,0.00874488148838,0.0,0,1,0,0.800216674805,0,0,0.0,-0.0,0.0,0.0198019798845,1.0,0.656641602516,-0.998161792755,0.0,7,0,0.0,0.0,0.0,0.0,0.0,0.0,0.0,0.0,,,,15.0878820419,0.0868349075317,0.0681647062302,-2,9,0.166375011206,-0.584014058113,4.23600006104,239,77,,,,,,,,,0,0.0,0.0,0.0,0.0,0,0.0,0,0.0,,,,,,,,,,,,,,,,11.4232378006,11.4006576538,-1.0,-1.0,,,,,,,,,,,,,,,,,,,,,,,,,,,,,,,,,,,,,,,,,,,,,,,,,,,,,,,,,,,,,,,,,,,,,,,,,,,,,,,,,,,,,,,,,,,,,,,,,,,,,,,3361459,PX4FMU_V1,251760679a4bed86fdb10746062fde2cc23e460f,test,305419904.0
3.06547117233,-0.0514174811542,-0.0692335516214,-0.00252928026021,-0.00164081924595,0.00999968219548,-0.529069781303,-0.733779370785,9.9456949234,0.0,0.0,-0.0692335516214,0.0,-0.529069781303,-0.733779370785,9.9456949234,-0.00258874031715,-0.0012672781013,0.0101243034005,0.170417279005,0.00785991363227,-0.265374600887,1017.65997314,-36.6448974609,28.859998703,0.0,0.0,0.0,0.0,0.0,0.0,0.0,0.0,0.0,0.0,0.0,0.0,0.0,0,0,0,0.0,0.0,,,,,,,,,,,,,,,,,,,,1.96171867847,0.0115172788501,0.00872260145843,0.0,0,1,0,0.800462722778,0,0,0.0,-0.0,0.0,0.0198019798845,0.99816006422,0.656641602516,-0.996323525906,0.0,7,0,0.0,0.0,0.0,0.0,0.0,0.0,0.0,0.0,,,,15.0876150131,0.0869536399841,0.0681503564119,-3,7,0.230509400368,-0.458563029766,4.23600006104,239,77,,,,,,,,,0,0.0,0.0,0.0,0.0,0,0.0,0,0.0,,,,,,,,,,,,,,,,11.4232378006,11.4006948471,-1.0,-1.0,,,,,,,,,,,,,,,,,,,,,,,,,,,,,,,,,,,,,,,,,,,,,,,,,,,,,,,,,,,,,,,,,,,,,,,,,,,,,,,,,,,,,,,,,,,,,,,,,,,,,,,3384005,PX4FMU_V1,251760679a4bed86fdb10746062fde2cc23e460f,test,305419904.0
3.06544470787,-0.0514262057841,-0.0700663775206,-0.00297867320478,-0.00157736660913,0.0101885572076,-0.548585295677,-0.737157344818,9.95458984375,0.0,0.0,-0.0700663775206,0.0,-0.548585295677,-0.737157344818,9.95458984375,-0.00328194024041,-0.00189753924496,0.0102129075676,0.169499918818,0.00952438358217,-0.268044888973,1017.70996094,-37.0596351624,28.8699989319,0.0,0.0,0.0,0.0,0.0,0.0,0.0,0.0,0.0,0.0,0.0,0.0,0.0,0,0,0,0.0,0.0,,,,,,,,,,,,,,,,,,,,1.96174156666,0.0114681459963,0.00869530532509,0.0,0,1,0,0.800462722778,0,0,0.0,-0.0,0.0,0.0198019798845,0.99816006422,0.656641602516,-0.996323525906,0.0,7,0,0.0,0.0,0.0,0.0,0.0,0.0,0.0,0.0,,,,15.0873422623,0.0866391435266,0.0681572556496,-1,8,0.0865348950028,-0.567244052887,4.24499988556,231,77,,,,,,,,,0,0.0,0.0,0.0,0.0,0,0.0,0,0.0,,,,,,,,,,,,,,,,11.4232378006,11.4007177353,-1.0,-1.0,,,,,,,,,,,,,,,,,,,,,,,,,,,,,,,,,,,,,,,,,,,,,,,,,,,,,,,,,,,,,,,,,,,,,,,,,,,,,,,,,,,,,,,,,,,,,,,,,,,,,,,3404754,PX4FMU_V1,251760679a4bed86fdb10746062fde2cc23e460f,test,305419904.0
3.0654168129,-0.051428321749,-0.0703961327672,-0.00270212278701,-0.00140863424167,0.00981398485601,-0.528558373451,-0.720190763474,9.95456504822,0.0,0.0,-0.0703961327672,0.0,-0.528558373451,-0.720190763474,9.95456504822,-0.00222555245273,-0.00118024949916,0.00948265846819,0.167665153742,0.00702767865732,-0.264484494925,1017.69995117,-36.976688385,28.8699989319,0.0,0.0,0.0,0.0,0.0,0.0,0.0,0.0,0.0,0.0,0.0,0.0,0.0,0,0,0,0.0,0.0,,,,,,,,,,,,,,,,,,,,1.96167337894,0.0114936903119,0.00875179469585,0.0,0,1,0,0.800462722778,0,0,0.0,-0.0,0.0,0.0198019798845,0.99816006422,0.656641602516,-0.998161792755,0.0,7,0,0.0,0.0,0.0,0.0,0.0,0.0,0.0,0.0,,,,15.0870943069,0.0870043709874,0.0681592822075,-3,7,0.201740056276,-0.457586407661,4.24499988556,227,77,,,,,,,,,0,0.0,0.0,0.0,0.0,0,0.0,0,0.0,,,,,,,,,,,,,,,,11.4232378006,11.4007635117,-1.0,-1.0,,,,,,,,,,,,,,,,,,,,,,,,,,,,,,,,,,,,,,,,,,,,,,,,,,,,,,,,,,,,,,,,,,,,,,,,,,,,,,,,,,,,,,,,,,,,,,,,,,,,,,,3426002,PX4FMU_V1,251760679a4bed86fdb10746062fde2cc23e460f,test,305419904.0
3.0654065609,-0.0514262802899,-0.070102520287,-0.00187446177006,-0.00198050308973,0.0104243643582,-0.527368843555,-0.731871068478,9.94120979309,0.0,0.0,-0.070102520287,0.0,-0.527368843555,-0.731871068478,9.94120979309,-0.00203873123974,-0.00199693860486,0.0104815522209,0.172252044082,0.0136855570599,-0.270715236664,1017.7699585,-37.5573005676,28.8799991608,0.0,0.0,0.0,0.0,0.0,0.0,0.0,0.0,0.0,0.0,0.0,0.0,0.0,0,0,0,0.0,0.0,,,,,,,,,,,,,,,,,,,,1.9615521431,0.0115684624761,0.0086594671011,0.0,0,1,0,0.800462722778,0,0,0.0,-0.0,0.0,0.0198019798845,1.0,0.656641602516,-0.998161792755,0.0,7,0,0.0,0.0,0.0,0.0,0.0,0.0,0.0,0.0,,,,15.0869884491,0.0870076715946,0.0681541413069,-4,9,0.262618839741,-0.534469842911,4.24499988556,227,77,,,,,,,,,0,0.0,0.0,0.0,0.0,0,0.0,0,0.0,,,,,,,,,,,,,,,,11.4232378006,11.400809288,-1.0,-1.0,,,,,,,,,,,,,,,,,,,,,,,,,,,,,,,,,,,,,,,,,,,,,,,,,,,,,,,,,,,,,,,,,,,,,,,,,,,,,,,,,,,,,,,,,,,,,,,,,,,,,,,3447644,PX4FMU_V1,251760679a4bed86fdb10746062fde2cc23e460f,test,305419904.0
3.06539964676,-0.0514220073819,-0.0697977691889,-0.00216470682062,-0.00123728567269,0.00985522009432,-0.531096577644,-0.743060827255,9.95117855072,0.0,0.0,-0.0697977691889,0.0,-0.531096577644,-0.743060827255,9.95117855072,-0.0024004408624,-0.00108622841071,0.0097383633256,0.167665153742,0.0153500270098,-0.26626470685,1017.73999023,-37.3084716797,28.8799991608,0.0,0.0,0.0,0.0,0.0,0.0,0.0,0.0,0.0,0.0,0.0,0.0,0.0,0,0,0,0.0,0.0,,,,,,,,,,,,,,,,,,,,1.96158266068,0.0113802645355,0.00874422304332,0.0,0,1,0,0.800462722778,0,0,0.0,-0.0,0.0,0.0222772285342,0.99816006422,0.656641602516,-0.998161792755,0.0,7,0,0.0,0.0,0.0,0.0,0.0,0.0,0.0,0.0,,,,15.086933136,0.0863032117486,0.068150036037,-4,7,0.255417764187,-0.452016919851,4.24499988556,227,77,,,,,,,,,0,0.0,0.0,0.0,0.0,0,0.0,0,0.0,,,,,,,,,,,,,,,,11.4232378006,11.4008541107,-1.0,-1.0,,,,,,,,,,,,,,,,,,,,,,,,,,,,,,,,,,,,,,,,,,,,,,,,,,,,,,,,,,,,,,,,,,,,,,,,,,,,,,,,,,,,,,,,,,,,,,,,,,,,,,,3468418,PX4FMU_V1,251760679a4bed86fdb10746062fde2cc23e460f,test,305419904.0
3.06537461281,-0.0514099523425,-0.0694936215878,-0.00316432258114,-0.00161689892411,0.00975026004016,-0.514977991581,-0.717748045921,9.96807003021,0.0,0.0,-0.0694936215878,0.0,-0.514977991581,-0.717748045921,9.96807003021,-0.00313491607085,-0.00199919450097,0.00979320239276,0.171334668994,0.0128533225507,-0.268044888973,1017.73999023,-37.3084716797,28.8799991608,0.0,0.0,0.0,0.0,0.0,0.0,0.0,0.0,0.0,0.0,0.0,0.0,0.0,0,0,0,0.0,0.0,,,,,,,,,,,,,,,,,,,,1.96168386936,0.0114597426727,0.00875685643405,0.0,0,1,0,0.800462722778,0,0,0.0,-0.0,0.0,0.0222772285342,0.99816006422,0.656641602516,-0.998161792755,0.0,7,0,0.0,0.0,0.0,0.0,0.0,0.0,0.0,0.0,,,,15.0867118835,0.0865349769592,0.0681293010712,-2,7,0.188050299883,-0.461978048086,4.23299980164,223,77,,,,,,,,,0,0.0,0.0,0.0,0.0,0,0.0,0,0.0,,,,,,,,,,,,,,,,11.4232378006,11.4008760452,-1.0,-1.0,,,,,,,,,,,,,,,,,,,,,,,,,,,,,,,,,,,,,,,,,,,,,,,,,,,,,,,,,,,,,,,,,,,,,,,,,,,,,,,,,,,,,,,,,,,,,,,,,,,,,,,3489610,PX4FMU_V1,251760679a4bed86fdb10746062fde2cc23e460f,test,305419904.0
3.06535625458,-0.0514041818678,-0.0704976096749,-0.00251290039159,-0.00165803183336,0.0106589179486,-0.539322018623,-0.742875635624,9.9765586853,0.0,0.0,-0.0704976096749,0.0,-0.539322018623,-0.742875635624,9.9765586853,-0.00237999623641,-0.00131524808239,0.0108635500073,0.170417279005,-0.00129466922954,-0.270715236664,1017.73999023,-37.3084716797,28.8799991608,0.0,0.0,0.0,0.0,0.0,0.0,0.0,0.0,0.0,0.0,0.0,0.0,0.0,0,0,0,0.0,0.0,,,,,,,,,,,,,,,,,,,,1.96157956123,0.0114802820608,0.00861946865916,0.0,0,1,0,0.800462722778,0,0,0.0,-0.0,0.0,0.0198019798845,0.99816006422,0.656641602516,-0.998161792755,0.0,7,0,0.0,0.0,0.0,0.0,0.0,0.0,0.0,0.0,,,,15.086561203,0.0866518318653,0.0681220442057,-2,6,0.177287399769,-0.407833844423,4.23299980164,235,77,,,,,,,,,0,0.0,0.0,0.0,0.0,0,0.0,0,0.0,,,,,,,,,,,,,,,,11.4148569107,11.4009122849,-1.0,-1.0,,,,,,,,,,,,,,,,,,,,,,,,,,,,,,,,,,,,,,,,,,,,,,,,,,,,,,,,,,,,,,,,,,,,,,,,,,,,,,,,,,,,,,,,,,,,,,,,,,,,,,,3511827,PX4FMU_V1,251760679a4bed86fdb10746062fde2cc23e460f,test,305419904.0
3.06534314156,-0.0513988733292,-0.0711982101202,-0.00266681378707,-0.00178016675636,0.0104006994516,-0.523021578789,-0.71638327837,9.96454811096,0.0,0.0,-0.0711982101202,0.0,-0.523021578789,-0.71638327837,9.96454811096,-0.00276125292294,-0.00183465180453,0.00992767512798,0.170417279005,0.00619544414803,-0.26626470685,1017.73999023,-37.3084716797,28.8799991608,0.0,0.0,0.0,0.0,0.0,0.0,0.0,0.0,0.0,0.0,0.0,0.0,0.0,0,0,0,0.0,0.0,,,,,,,,,,,,,,,,,,,,1.96158564091,0.0114653008059,0.00865701772273,0.0,0,1,0,0.800462722778,0,0,0.0,-0.0,0.0,0.0198019798845,1.0,0.656641602516,-0.998161792755,0.0,7,0,0.0,0.0,0.0,0.0,0.0,0.0,0.0,0.0,,,,15.0864543915,0.0864144563675,0.0681141465902,-4,6,0.273429691792,-0.443370878696,4.23299980164,227,77,,,,,,,,,0,0.0,0.0,0.0,0.0,0,0.0,0,0.0,,,,,,,,,,,,,,,,11.4232378006,11.4009485245,-1.0,-1.0,,,,,,,,,,,,,,,,,,,,,,,,,,,,,,,,,,,,,,,,,,,,,,,,,,,,,,,,,,,,,,,,,,,,,,,,,,,,,,,,,,,,,,,,,,,,,,,,,,,,,,,3532935,PX4FMU_V1,251760679a4bed86fdb10746062fde2cc23e460f,test,305419904.0
3.06533408165,-0.0513993985951,-0.0712563022971,-0.00220374809578,-0.00130563159473,0.010542803444,-0.537630319595,-0.736384451389,9.95472240448,0.0,0.0,-0.0712563022971,0.0,-0.537630319595,-0.736384451389,9.95472240448,-0.00161220435984,-0.00124967563897,0.0109367314726,0.171334668994,0.0103566180915,-0.268934994936,1017.75,-37.3914146423,28.8799991608,0.0,0.0,0.0,0.0,0.0,0.0,0.0,0.0,0.0,0.0,0.0,0.0,0.0,0,0,0,0.0,0.0,,,,,,,,,,,,,,,,,,,,1.96151256561,0.0114503968507,0.00863549765199,0.0,0,1,0,0.800462722778,0,0,0.0,-0.0,0.0,0.0198019798845,1.0,0.656641602516,-0.998161792755,0.0,7,0,0.0,0.0,0.0,0.0,0.0,0.0,0.0,0.0,,,,15.0863552094,0.0867743492126,0.068112783134,-2,5,0.183474808931,-0.376118063927,4.23299980164,243,77,,,,,,,,,0,0.0,0.0,0.0,0.0,0,0.0,0,0.0,,,,,,,,,,,,,,,,11.4148569107,11.4009771347,-1.0,-1.0,,,,,,,,,,,,,,,,,,,,,,,,,,,,,,,,,,,,,,,,,,,,,,,,,,,,,,,,,,,,,,,,,,,,,,,,,,,,,,,,,,,,,,,,,,,,,,,,,,,,,,,3554209,PX4FMU_V1,251760679a4bed86fdb10746062fde2cc23e460f,test,305419904.0
3.06530117989,-0.0514119490981,-0.0717528089881,-0.00266353506595,-0.00122677988838,0.010094627738,-0.535473823547,-0.745429575443,9.96832466125,0.0,0.0,-0.0717528089881,0.0,-0.535473823547,-0.745429575443,9.96832466125,-0.00286602182314,-0.00147139898036,0.0103276278824,0.169499918818,0.00619544414803,-0.271605342627,1017.75,-37.3914146423,28.8799991608,0.0,0.0,0.0,0.0,0.0,0.0,0.0,0.0,0.0,0.0,0.0,0.0,0.0,0,0,0,0.0,0.0,,,,,,,,,,,,,,,,,,,,1.96152639389,0.0114904977381,0.0087042786181,0.0,0,1,0,0.800462722778,0,0,0.0,-0.0,0.0,0.0198019798845,1.0,0.656641602516,-0.998161792755,0.0,7,0,0.0,0.0,0.0,0.0,0.0,0.0,0.0,0.0,,,,15.0860013962,0.087161667645,0.0681231468916,-3,7,0.237706005573,-0.49025413394,4.23299980164,235,77,,,,,,,,,0,0.0,0.0,0.0,0.0,0,0.0,0,0.0,,,,,,,,,,,,,,,,11.4232378006,11.4010210037,-1.0,-1.0,,,,,,,,,,,,,,,,,,,,,,,,,,,,,,,,,,,,,,,,,,,,,,,,,,,,,,,,,,,,,,,,,,,,,,,,,,,,,,,,,,,,,,,,,,,,,,,,,,,,,,,3576397,PX4FMU_V1,251760679a4bed86fdb10746062fde2cc23e460f,test,305419904.0
3.06527686119,-0.0514013469219,-0.0722242966294,-0.00269535090774,-0.00133160559926,0.0108847487718,-0.516291618347,-0.735248863697,9.94902420044,0.0,0.0,-0.0722242966294,0.0,-0.516291618347,-0.735248863697,9.94902420044,-0.00252094864845,-0.00125082046725,0.0107271634042,0.16858252883,0.0103566180915,-0.276945978403,1017.7199707,-37.1425819397,28.8799991608,0.0,0.0,0.0,0.0,0.0,0.0,0.0,0.0,0.0,0.0,0.0,0.0,0.0,0,0,0,0.0,0.0,,,,,,,,,,,,,,,,,,,,1.96150434017,0.0114587331191,0.00858316943049,0.0,0,1,0,0.80069476366,0,0,0.0,-0.0,0.0,0.0222772285342,0.99816006422,0.656641602516,-0.998161792755,0.0,7,0,0.0,0.0,0.0,0.0,0.0,0.0,0.0,0.0,,,,15.0858001709,0.0868124961853,0.0681058764458,-3,7,0.217119902372,-0.466328322887,4.24599981308,235,77,,,,,,,,,0,0.0,0.0,0.0,0.0,0,0.0,0,0.0,,,,,,,,,,,,,,,,11.4232378006,11.4010429382,-1.0,-1.0,,,,,,,,,,,,,,,,,,,,,,,,,,,,,,,,,,,,,,,,,,,,,,,,,,,,,,,,,,,,,,,,,,,,,,,,,,,,,,,,,,,,,,,,,,,,,,,,,,,,,,,3597576,PX4FMU_V1,251760679a4bed86fdb10746062fde2cc23e460f,test,305419904.0
3.06526398659,-0.0514030866325,-0.0733454823494,-0.00234792078845,-0.00162461516447,0.0109551185742,-0.535780489445,-0.749897837639,9.97542762756,0.0,0.0,-0.0733454823494,0.0,-0.535780489445,-0.749897837639,9.97542762756,-0.0026706547942,-0.00179965759162,0.0108456909657,0.16858252883,0.0120210880414,-0.264484494925,1017.73999023,-37.3084716797,28.8799991608,0.0,0.0,0.0,0.0,0.0,0.0,0.0,0.0,0.0,0.0,0.0,0.0,0.0,0,0,0,0.0,0.0,,,,,,,,,,,,,,,,,,,,1.96144330502,0.0114982901141,0.00857298634946,0.0,0,1,0,0.80069476366,0,0,0.0,-0.0,0.0,0.0222772285342,0.99816006422,0.656641602516,-0.998161792755,0.0,7,0,0.0,0.0,0.0,0.0,0.0,0.0,0.0,0.0,,,,15.0856781006,0.0868237763643,0.0681083574891,-2,5,0.165977314115,-0.312678694725,4.24599981308,227,77,,,,,,,,,0,0.0,0.0,0.0,0.0,0,0.0,0,0.0,,,,,,,,,,,,,,,,11.4232378006,11.4010868073,-1.0,-1.0,,,,,,,,,,,,,,,,,,,,,,,,,,,,,,,,,,,,,,,,,,,,,,,,,,,,,,,,,,,,,,,,,,,,,,,,,,,,,,,,,,,,,,,,,,,,,,,,,,,,,,,3620188,PX4FMU_V1,251760679a4bed86fdb10746062fde2cc23e460f,test,305419904.0
3.06524372101,-0.0514095500112,-0.0730956718326,-0.00269352528267,-0.00141645723488,0.0104888090864,-0.54628098011,-0.722580373287,9.9545135498,0.0,0.0,-0.0730956718326,0.0,-0.54628098011,-0.722580373287,9.9545135498,-0.00251876842231,-0.00118593650404,0.0106064286083,0.169499918818,0.0111888535321,-0.26626470685,1017.72998047,-37.2255249023,28.8799991608,0.0,0.0,0.0,0.0,0.0,0.0,0.0,0.0,0.0,0.0,0.0,0.0,0.0,0,0,0,0.0,0.0,,,,,,,,,,,,,,,,,,,,1.96146023273,0.0113976709545,0.00864412821829,0.0,0,1,0,0.80069476366,0,0,0.0,-0.0,0.0,0.0198019798845,1.0,0.656641602516,-0.998161792755,0.0,7,0,0.0,0.0,0.0,0.0,0.0,0.0,0.0,0.0,,,,15.0854625702,0.0862579345703,0.0681163296103,-4,4,0.277698636055,-0.296223223209,4.24599981308,231,77,,,,,,,,,0,0.0,0.0,0.0,0.0,0,0.0,0,0.0,,,,,,,,,,,,,,,,11.4232378006,11.4011306763,-1.0,-1.0,,,,,,,,,,,,,,,,,,,,,,,,,,,,,,,,,,,,,,,,,,,,,,,,,,,,,,,,,,,,,,,,,,,,,,,,,,,,,,,,,,,,,,,,,,,,,,,,,,,,,,,3640831,PX4FMU_V1,251760679a4bed86fdb10746062fde2cc23e460f,test,305419904.0
3.06523656845,-0.0514057427645,-0.0729456618428,-0.00244695693254,-0.00163122359663,0.0105506014079,-0.517723321915,-0.721049308777,9.96475124359,0.0,0.0,-0.0729456618428,0.0,-0.517723321915,-0.721049308777,9.96475124359,-0.00217894325033,-0.00184267060831,0.0104399807751,0.170417279005,0.0128533225507,-0.26626470685,1017.7699585,-37.5573005676,28.8799991608,0.0,0.0,0.0,0.0,0.0,0.0,0.0,0.0,0.0,0.0,0.0,0.0,0.0,0,0,0,0.0,0.0,,,,,,,,,,,,,,,,,,,,1.96142148972,0.0115169826895,0.00863388832659,0.0,0,1,0,0.80069476366,0,0,0.0,-0.0,0.0,0.0222772285342,0.99816006422,0.656641602516,-0.998161792755,0.0,7,0,0.0,0.0,0.0,0.0,0.0,0.0,0.0,0.0,,,,15.0854110718,0.0869609564543,0.0681098550558,-4,7,0.280445039272,-0.498332113028,4.24599981308,231,77,,,,,,,,,0,0.0,0.0,0.0,0.0,0,0.0,0,0.0,,,,,,,,,,,,,,,,11.4232378006,11.4011745453,-1.0,-1.0,,,,,,,,,,,,,,,,,,,,,,,,,,,,,,,,,,,,,,,,,,,,,,,,,,,,,,,,,,,,,,,,,,,,,,,,,,,,,,,,,,,,,,,,,,,,,,,,,,,,,,,3662243,PX4FMU_V1,251760679a4bed86fdb10746062fde2cc23e460f,test,305419904.0
3.06523394585,-0.0513927415013,-0.0725142136216,-0.00204600160941,-0.00223069195636,0.0105760898441,-0.527213573456,-0.722987771034,9.95639038086,0.0,0.0,-0.0725142136216,0.0,-0.527213573456,-0.722987771034,9.95639038086,-0.00236143870279,-0.00229483959265,0.0104754278436,0.16858252883,0.00952438358217,-0.268934994936,1017.70996094,-37.0596351624,28.8799991608,0.0,0.0,0.0,0.0,0.0,0.0,0.0,0.0,0.0,0.0,0.0,0.0,0.0,0,0,0,0.0,0.0,,,,,,,,,,,,,,,,,,,,1.96136915684,0.0116070751101,0.00862736813724,0.0,0,1,0,0.80069476366,0,0,0.0,-0.0,0.0,0.0198019798845,0.99816006422,0.656641602516,-0.998161792755,0.0,7,0,0.0,0.0,0.0,0.0,0.0,0.0,0.0,0.0,,,,15.0854101181,0.0870545059443,0.0680918768048,-4,7,0.264779686928,-0.421610355377,4.24599981308,219,77,,,,,,,,,0,0.0,0.0,0.0,0.0,0,0.0,0,0.0,,,,,,,,,,,,,,,,11.4232378006,11.4012184143,-1.0,-1.0,,,,,,,,,,,,,,,,,,,,,,,,,,,,,,,,,,,,,,,,,,,,,,,,,,,,,,,,,,,,,,,,,,,,,,,,,,,,,,,,,,,,,,,,,,,,,,,,,,,,,,,3684404,PX4FMU_V1,251760679a4bed86fdb10746062fde2cc23e460f,test,305419904.0
3.06522989273,-0.051386795938,-0.0729629844427,-0.00231999508105,-0.00174521072768,0.0107929026708,-0.52917432785,-0.733702778816,9.97563457489,0.0,0.0,-0.0729629844427,0.0,-0.52917432785,-0.733702778816,9.97563457489,-0.00223825476132,-0.00147432787344,0.0111829619855,0.170417279005,0.00536320963874,-0.268044888973,1017.70996094,-37.0596351624,28.8799991608,0.0,0.0,0.0,0.0,0.0,0.0,0.0,0.0,0.0,0.0,0.0,0.0,0.0,0,0,0,0.0,0.0,,,,,,,,,,,,,,,,,,,,1.96140003204,0.0115131922066,0.00859391968697,0.0,0,1,0,0.80069476366,0,0,0.0,-0.0,0.0,0.0222772285342,0.99816006422,0.656641602516,-0.998161792755,0.0,7,0,0.0,0.0,0.0,0.0,0.0,0.0,0.0,0.0,,,,15.0853729248,0.0868178084493,0.0680857002735,-3,8,0.220009371638,-0.47182816267,4.23500013351,223,77,,,,,,,,,0,0.0,0.0,0.0,0.0,0,0.0,0,0.0,,,,,,,,,,,,,,,,11.4232378006,11.4012403488,-1.0,-1.0,,,,,,,,,,,,,,,,,,,,,,,,,,,,,,,,,,,,,,,,,,,,,,,,,,,,,,,,,,,,,,,,,,,,,,,,,,,,,,,,,,,,,,,,,,,,,,,,,,,,,,,3706673,PX4FMU_V1,251760679a4bed86fdb10746062fde2cc23e460f,test,305419904.0
3.06520438194,-0.0513839572668,-0.0725317448378,-0.00275580445305,-0.00174733391032,0.0108763547614,-0.536104977131,-0.736903727055,9.94975090027,0.0,0.0,-0.0725317448378,0.0,-0.536104977131,-0.736903727055,9.94975090027,-0.00298793031834,-0.00195063301362,0.010617104359,0.169499918818,0.0120210880414,-0.26715478301,1017.73999023,-37.3084716797,28.8899993896,0.0,0.0,0.0,0.0,0.0,0.0,0.0,0.0,0.0,0.0,0.0,0.0,0.0,0,0,0,0.0,0.0,,,,,,,,,,,,,,,,,,,,1.96142828465,0.0115145305172,0.00858035963029,0.0,0,1,0,0.80069476366,0,0,0.0,-0.0,0.0,0.0198019798845,1.0,0.656641602516,-0.998161792755,0.0,7,0,0.0,0.0,0.0,0.0,0.0,0.0,0.0,0.0,,,,15.0851545334,0.0868259817362,0.0680787488818,-5,8,0.335028350353,-0.511451840401,4.23500013351,227,77,,,,,,,,,0,0.0,0.0,0.0,0.0,0,0.0,0,0.0,,,,,,,,,,,,,,,,11.4232378006,11.4012842178,-1.0,-1.0,,,,,,,,,,,,,,,,,,,,,,,,,,,,,,,,,,,,,,,,,,,,,,,,,,,,,,,,,,,,,,,,,,,,,,,,,,,,,,,,,,,,,,,,,,,,,,,,,,,,,,,3728083,PX4FMU_V1,251760679a4bed86fdb10746062fde2cc23e460f,test,305419904.0
3.0651910305,-0.0513769872487,-0.0723232924938,-0.00268567446619,-0.0021768824663,0.0106631750241,-0.533492922783,-0.743332624435,9.95135784149,0.0,0.0,-0.0723232924938,0.0,-0.533492922783,-0.743332624435,9.95135784149,-0.00292549678124,-0.00223649875261,0.0107776066288,0.170417279005,0.00952438358217,-0.271605342627,1017.72998047,-37.2255249023,28.8899993896,0.0,0.0,0.0,0.0,0.0,0.0,0.0,0.0,0.0,0.0,0.0,0.0,0.0,0,0,0,0.0,0.0,,,,,,,,,,,,,,,,,,,,1.96140360832,0.0115699125454,0.00861079245806,0.0,0,1,0,0.80069476366,0,0,0.0,-0.0,0.0,0.0198019798845,1.0,0.656641602516,-0.998161792755,0.0,7,0,0.0,0.0,0.0,0.0,0.0,0.0,0.0,0.0,,,,15.0850353241,0.086822450161,0.0680684521794,-4,7,0.292786389589,-0.475115001202,4.23500013351,215,77,,,,,,,,,0,0.0,0.0,0.0,0.0,0,0.0,0,0.0,,,,,,,,,,,,,,,,11.4148569107,11.4013195038,-1.0,-1.0,,,,,,,,,,,,,,,,,,,,,,,,,,,,,,,,,,,,,,,,,,,,,,,,,,,,,,,,,,,,,,,,,,,,,,,,,,,,,,,,,,,,,,,,,,,,,,,,,,,,,,,3748847,PX4FMU_V1,251760679a4bed86fdb10746062fde2cc23e460f,test,305419904.0
3.06517124176,-0.0513578914106,-0.0721327140927,-0.00247090938501,-0.00225372170098,0.0102011486888,-0.529672682285,-0.733909249306,9.94193744659,0.0,0.0,-0.0721327140927,0.0,-0.529672682285,-0.733909249306,9.94193744659,-0.00248995842412,-0.00226291036233,0.00983843579888,0.171334668994,0.0136855570599,-0.26626470685,1017.75994873,-37.474357605,28.8899993896,0.0,0.0,0.0,0.0,0.0,0.0,0.0,0.0,0.0,0.0,0.0,0.0,0.0,0,0,0,0.0,0.0,,,,,,,,,,,,,,,,,,,,1.96135687828,0.0115618584678,0.00867632310838,0.0,0,1,0,0.80069476366,0,0,0.0,-0.0,0.0,0.0198019798845,1.0,0.656641602516,-0.998161792755,0.0,7,0,0.0,0.0,0.0,0.0,0.0,0.0,0.0,0.0,,,,15.0848903656,0.0866836607456,0.0680432990193,-5,4,0.326352894306,-0.315764218569,4.23500013351,239,77,,,,,,,,,0,0.0,0.0,0.0,0.0,0,0.0,0,0.0,,,,,,,,,,,,,,,,11.4232378006,11.4013719559,-1.0,-1.0,,,,,,,,,,,,,,,,,,,,,,,,,,,,,,,,,,,,,,,,,,,,,,,,,,,,,,,,,,,,,,,,,,,,,,,,,,,,,,,,,,,,,,,,,,,,,,,,,,,,,,,3770074,PX4FMU_V1,251760679a4bed86fdb10746062fde2cc23e460f,test,305419904.0
3.06513547897,-0.0513598285615,-0.0730374231935,-0.00305693037808,-0.00143357226625,0.0107546783984,-0.53787279129,-0.738485872746,9.95615386963,0.0,0.0,-0.0730374231935,0.0,-0.53787279129,-0.738485872746,9.95615386963,-0.00322874961421,-0.00128855474759,0.0113674532622,0.169499918818,-0.004623609595,-0.270715236664,1017.70996094,-37.0596351624,28.8899993896,0.0,0.0,0.0,0.0,0.0,0.0,0.0,0.0,0.0,0.0,0.0,0.0,0.0,0,0,0,0.0,0.0,,,,,,,,,,,,,,,,,,,,1.96138846874,0.0114737022668,0.00859314296395,0.0,0,1,0,0.80069476366,0,0,0.0,-0.0,0.0,0.0198019798845,1.0,0.656641602516,-0.998161792755,0.0,7,0,0.0,0.0,0.0,0.0,0.0,0.0,0.0,0.0,,,,15.0845479965,0.0868256762624,0.068042293191,-5,7,0.328724563122,-0.474696815014,4.25,231,77,,,,,,,,,0,0.0,0.0,0.0,0.0,0,0.0,0,0.0,,,,,,,,,,,,,,,,11.4232378006,11.4014158249,-1.0,-1.0,,,,,,,,,,,,,,,,,,,,,,,,,,,,,,,,,,,,,,,,,,,,,,,,,,,,,,,,,,,,,,,,,,,,,,,,,,,,,,,,,,,,,,,,,,,,,,,,,,,,,,,3792398,PX4FMU_V1,251760679a4bed86fdb10746062fde2cc23e460f,test,305419904.0
3.06512355804,-0.0513618849218,-0.0739143043756,-0.00220468826592,-0.00153219804633,0.0114022474736,-0.522922039032,-0.7299503088,9.98113155365,0.0,0.0,-0.0739143043756,0.0,-0.522922039032,-0.7299503088,9.98113155365,-0.00174911716022,-0.00168015889358,0.011353877373,0.170417279005,0.0103566180915,-0.268934994936,1017.70996094,-37.0596351624,28.8899993896,0.0,0.0,0.0,0.0,0.0,0.0,0.0,0.0,0.0,0.0,0.0,0.0,0.0,0,0,0,0.0,0.0,,,,,,,,,,,,,,,,,,,,1.96126234531,0.0114878350869,0.00849573872983,0.0,0,1,0,0.800943374634,0,0,0.0,-0.0,0.0,0.0198019798845,1.0,0.656641602516,-0.998161792755,0.0,7,0,0.0,0.0,0.0,0.0,0.0,0.0,0.0,0.0,,,,15.0844287872,0.0868357717991,0.0680405050516,-6,5,0.413993597031,-0.320092469454,4.25,231,77,,,,,,,,,0,0.0,0.0,0.0,0.0,0,0.0,0,0.0,,,,,,,,,,,,,,,,11.4232378006,11.4014377594,-1.0,-1.0,,,,,,,,,,,,,,,,,,,,,,,,,,,,,,,,,,,,,,,,,,,,,,,,,,,,,,,,,,,,,,,,,,,,,,,,,,,,,,,,,,,,,,,,,,,,,,,,,,,,,,,3813425,PX4FMU_V1,251760679a4bed86fdb10746062fde2cc23e460f,test,305419904.0
