ATT_Roll,ATT_Pitch,ATT_Yaw,ATT_RollRate,ATT_PitchRate,ATT_YawRate,ATT_GX,ATT_GY,ATT_GZ,ATSP_RollSP,ATSP_PitchSP,ATSP_YawSP,ATSP_ThrustSP,IMU_AccX,IMU_AccY,IMU_AccZ,IMU_GyroX,IMU_GyroY,IMU_GyroZ,IMU_MagX,IMU_MagY,IMU_MagZ,SENS_BaroPres,SENS_BaroAlt,SENS_BaroTemp,SENS_DiffPres,SENS_DiffPresFilt,LPOS_X,LPOS_Y,LPOS_Z,LPOS_Dist,LPOS_DistR,LPOS_VX,LPOS_VY,LPOS_VZ,LPOS_RLat,LPOS_RLon,LPOS_RAlt,LPOS_PFlg,LPOS_LFlg,LPOS_GFlg,LPOS_EPH,LPOS_EPV,LPSP_X,LPSP_Y,LPSP_Z,LPSP_Yaw,GPS_GPSTime,GPS_Fix,GPS_EPH,GPS_EPV,GPS_Lat,GPS_Lon,GPS_Alt,GPS_VelN,GPS_VelE,GPS_VelD,GPS_Cog,GPS_nSat,GPS_SNR,GPS_N,GPS_J,ATTC_Roll,ATTC_Pitch,ATTC_Yaw,ATTC_Thrust,STAT_MainState,STAT_ArmState,STAT_FailsafeState,STAT_BatRem,STAT_BatWarn,STAT_Landed,RC_Ch0,RC_Ch1,RC_Ch2,RC_Ch3,RC_Ch4,RC_Ch5,RC_Ch6,RC_Ch7,RC_Count,RC_SignalLost,OUT0_Out0,OUT0_Out1,OUT0_Out2,OUT0_Out3,OUT0_Out4,OUT0_Out5,OUT0_Out6,OUT0_Out7,AIRS_IndSpeed,AIRS_TrueSpeed,AIRS_AirTemp,ARSP_RollRateSP,ARSP_PitchRateSP,ARSP_YawRateSP,FLOW_RawX,FLOW_RawY,FLOW_CompX,FLOW_CompY,FLOW_Dist,FLOW_Q,FLOW_SensID,GPOS_Lat,GPOS_Lon,GPOS_Alt,GPOS_VelN,GPOS_VelE,GPOS_VelD,GPOS_EPH,GPOS_EPV,GPSP_NavState,GPSP_Lat,GPSP_Lon,GPSP_Alt,GPSP_Yaw,GPSP_Type,GPSP_LoitR,GPSP_LoitDir,GPSP_PitMin,ESC_count,ESC_nESC,ESC_Conn,ESC_N,ESC_Ver,ESC_Adr,ESC_Volt,ESC_Amp,ESC_RPM,ESC_Temp,ESC_SetP,ESC_SetPRAW,GVSP_VX,GVSP_VY,GVSP_VZ,BATT_V,BATT_VFilt,BATT_C,BATT_Discharged,DIST_Bottom,DIST_BottomRate,DIST_Flags,TELE_RSSI,TELE_RemRSSI,TELE_Noise,TELE_RemNoise,TELE_RXErr,TELE_Fixed,TELE_TXBuf,ESTM_s0,ESTM_s1,ESTM_s2,ESTM_s3,ESTM_s4,ESTM_s5,ESTM_s6,ESTM_s7,ESTM_s8,ESTM_s9,ESTM_nStat,ESTM_statNaN,ESTM_covNaN,ESTM_kGainNaN,PWR_Periph5V,PWR_Servo5V,PWR_RSSI,PWR_UsbOk,PWR_BrickOk,PWR_ServoOk,PWR_PeriphOC,PWR_HipwrOC,VICN_X,VICN_Y,VICN_Z,VICN_Roll,VICN_Pitch,VICN_Yaw,GS0A_s0,GS0A_s1,GS0A_s2,GS0A_s3,GS0A_s4,GS0A_s5,GS0A_s6,GS0A_s7,GS0A_s8,GS0A_s9,GS0A_s10,GS0A_s11,GS0A_s12,GS0A_s13,GS0A_s14,GS0A_s15,GS0B_s0,GS0B_s1,GS0B_s2,GS0B_s3,GS0B_s4,GS0B_s5,GS0B_s6,GS0B_s7,GS0B_s8,GS0B_s9,GS0B_s10,GS0B_s11,GS0B_s12,GS0B_s13,GS0B_s14,GS0B_s15,GS1A_s0,GS1A_s1,GS1A_s2,GS1A_s3,GS1A_s4,GS1A_s5,GS1A_s6,GS1A_s7,GS1A_s8,GS1A_s9,GS1A_s10,GS1A_s11,GS1A_s12,GS1A_s13,GS1A_s14,GS1A_s15,GS1B_s0,GS1B_s1,GS1B_s2,GS1B_s3,GS1B_s4,GS1B_s5,GS1B_s6,GS1B_s7,GS1B_s8,GS1B_s9,GS1B_s10,GS1B_s11,GS1B_s12,GS1B_s13,GS1B_s14,GS1B_s15,TIME_StartTime,VER_Arch,VER_FwGit,PARM_Name,PARM_Value
,,,,,,,,,,,,,,,,,,,,,,,,,,,,,,,,,,,,,,,,,,,,,,,,,,,,,,,,,,,,,,,,,,,,,,,,,,,,,,,,,,,,,,,,,,,,,,,,,,,,,,,,,,,,,,,,,,,,,,,,,,,,,,,,,,,,,,,,,,,,,,,,,,,,,,,,,,,,,,,,,,,,,,,,,,,,,,,,,,,,,,,,,,,,,,,,,,,,,,,,,,,,,,,,,,,,,,,,,,,,,,,,,,,,,,,,,,,,,,,,,,PX4FMU_V1,251760679a4bed86fdb10746062fde2cc23e460f,test,305419904.0
0.00120307365432,-0.0150649975985,-2.12418746948,0.00430369190872,0.00303658447228,0.00151660502888,-0.244891017675,-0.0607460513711,-9.82617855072,0.0,0.0,-2.11307263374,0.0,-0.244891017675,-0.0607460513711,-9.82617855072,0.00792926363647,0.00854126177728,-0.00456369481981,-0.0983751341701,0.126869499683,0.439589679241,1019.94000244,-55.5401611328,26.6299991608,0.0,0.0,0.0,0.0,0.237405970693,0.0,0.0,0.0,0.0,0.223423928022,0.0,0.0,0.0,10,1,0,20.0,1.00926840305,,,,,,,,,,,,,,,,,,,,-0.00134141801391,0.00939749460667,0.00143837893847,0.0,0,2,0,1.0,0,1,0.0,-0.0,0.0,0.0247524753213,-1.0,0.776942372322,-0.998161792755,0.0,7,0,10.0,10.0,10.0,10.0,0.0,0.0,0.0,0.0,,,,-0.00601490866393,0.0753250047565,0.0111057972535,0,0,0.0,0.0,0.300000011921,0,77,,,,,,,,,,,,,,,,,,,,,,,,,,,,,,,,,11.8087615967,11.8948059082,-1.0,-1.0,,,,,,,,,,,,,,,,,,,,,,,,,,,,,,,,,,,,,,,,,,,,,,,,,,,,,,,,,,,,,,,,,,,,,,,,,,,,,,,,,,,,,,,,,,,,,,,,,,,,,,,5948236,PX4FMU_V1,251760679a4bed86fdb10746062fde2cc23e460f,test,305419904.0
0.00120946543757,-0.0149414567277,-2.12306785583,-0.00764454388991,0.000493468542118,-0.0019990010187,0.0731479078531,0.117593869567,-9.67965602875,0.0,0.0,-2.11307263374,0.0,0.0731479078531,0.117593869567,-9.67965602875,-0.0127635728568,-0.00408251956105,0.00805946998298,-0.0580103993416,0.111057035625,0.437809497118,1019.88995361,-55.1261558533,26.6299991608,0.0,0.0,0.0,0.0,0.239192977548,0.0,0.0,0.0,0.0,0.224143922329,0.0,0.0,0.0,10,1,0,20.0,1.00938761234,,,,,,,,,,,,,,,,,,,,0.000207696662983,0.00964779499918,0.00179779925384,0.0,0,2,0,1.0,0,1,0.0,-0.0,0.0,0.0247524753213,-1.0,0.776942372322,-0.998161792755,0.0,7,0,10.0,10.0,10.0,10.0,0.0,0.0,0.0,0.0,,,,-0.00604687724262,0.0747072771192,0.00998632702976,0,0,0.0,0.0,0.300000011921,0,77,,,,,,,,,,,,,,,,,,,,,,,,,,,,,,,,,11.8087615967,11.8947200775,-1.0,-1.0,,,,,,,,,,,,,,,,,,,,,,,,,,,,,,,,,,,,,,,,,,,,,,,,,,,,,,,,,,,,,,,,,,,,,,,,,,,,,,,,,,,,,,,,,,,,,,,,,,,,,,,5968760,PX4FMU_V1,251760679a4bed86fdb10746062fde2cc23e460f,test,305419904.0
0.00118119025137,-0.015061635524,-2.12445402145,0.00332034355961,-0.00623639998958,0.00135706504807,-0.402478307486,-0.166295856237,-9.67476463318,0.0,0.0,-2.11307263374,0.0,-0.402478307486,-0.166295856237,-9.67476463318,0.00530955567956,-0.00319862761535,-0.00452951714396,-0.0745232477784,0.127701729536,0.428018301725,1019.94995117,-55.622959137,26.6299991608,0.0,0.0,0.0,0.0,0.241570830345,0.0,0.0,0.0,0.0,0.225200250745,0.0,0.0,0.0,10,1,0,20.0,1.00951004028,,,,,,,,,,,,,,,,,,,,-0.00119936012197,0.0106007959694,0.00150230841246,0.0,0,2,0,1.0,0,1,0.0,-0.0,0.0,0.0247524753213,-1.0,0.776942372322,-0.998161792755,0.0,7,0,10.0,10.0,10.0,10.0,0.0,0.0,0.0,0.0,,,,-0.00590550340712,0.075308188796,0.0113724535331,0,0,0.0,0.0,0.300000011921,0,77,,,,,,,,,,,,,,,,,,,,,,,,,,,,,,,,,11.8171424866,11.8945569992,-1.0,-1.0,,,,,,,,,,,,,,,,,,,,,,,,,,,,,,,,,,,,,,,,,,,,,,,,,,,,,,,,,,,,,,,,,,,,,,,,,,,,,,,,,,,,,,,,,,,,,,,,,,,,,,,5990160,PX4FMU_V1,251760679a4bed86fdb10746062fde2cc23e460f,test,305419904.0
0.00121598003898,-0.0150388674811,-2.12249994278,-0.00212635984644,0.00195527984761,-0.00494294892997,-0.101771570742,-0.0357475914061,-9.63024902344,0.0,0.0,-2.11307263374,0.0,-0.101771570742,-0.0357475914061,-9.63024902344,-0.00411891564727,0.00236576190218,-0.0068281874992,-0.0690189749002,0.151836544275,0.428018301725,1019.88995361,-55.1261558533,26.6299991608,0.0,0.0,0.0,0.0,0.242875754833,0.0,0.0,0.0,0.0,0.226371839643,0.0,0.0,0.0,10,1,0,20.0,1.00962972641,,,,,,,,,,,,,,,,,,,,-0.000513900537044,0.009521080181,0.00215415144339,0.0,0,2,0,1.0,0,1,0.0,-0.0,0.0,0.0247524753213,-1.0,0.776942372322,-0.996323525906,0.0,7,0,10.0,10.0,10.0,10.0,0.0,0.0,0.0,0.0,,,,-0.00607944093645,0.0751943588257,0.00941806007177,5,-6,-0.0423103608191,0.0489572249353,0.300000011921,0,77,,,,,,,,,,,,,,,,,,,,,,,,,,,,,,,,,11.7919998169,11.8943605423,-1.0,-1.0,,,,,,,,,,,,,,,,,,,,,,,,,,,,,,,,,,,,,,,,,,,,,,,,,,,,,,,,,,,,,,,,,,,,,,,,,,,,,,,,,,,,,,,,,,,,,,,,,,,,,,,6012775,PX4FMU_V1,251760679a4bed86fdb10746062fde2cc23e460f,test,305419904.0
0.00117065478116,-0.0150307491422,-2.12187671661,0.00100646761712,-0.00661870092154,0.00631505437195,-0.15514062345,-0.0931307524443,-9.66850948334,0.0,0.0,-2.11307263374,0.0,-0.15514062345,-0.0931307524443,-9.66850948334,0.00369638577104,-0.0103248395026,0.00952178798616,-0.0809449031949,0.151004299521,0.425347983837,1019.92999268,-55.457359314,26.6399993896,0.0,0.0,0.0,0.0,0.242544978857,0.0,0.0,0.0,0.0,0.225751698017,0.0,0.0,0.0,10,1,0,20.0,1.00968980789,,,,,,,,,,,,,,,,,,,,-0.000891709467396,0.0106304204091,0.000372039037757,0.0,0,2,0,1.0,0,1,0.0,-0.0,0.0,0.0272277221084,-1.0,0.776942372322,-0.998161792755,0.0,7,0,10.0,10.0,10.0,10.0,0.0,0.0,0.0,0.0,,,,-0.0058528361842,0.0751537680626,0.00879531446844,0,0,0.0,0.0,0.300000011921,0,77,,,,,,,,,,,,,,,,,,,,,,,,,,,,,,,,,11.8171424866,11.894197464,-1.0,-1.0,,,,,,,,,,,,,,,,,,,,,,,,,,,,,,,,,,,,,,,,,,,,,,,,,,,,,,,,,,,,,,,,,,,,,,,,,,,,,,,,,,,,,,,,,,,,,,,,,,,,,,,6033218,PX4FMU_V1,251760679a4bed86fdb10746062fde2cc23e460f,test,305419904.0
0.00120133894961,-0.0151096004993,-2.12106776237,-0.00225732475519,0.00162637222093,-0.00641103321686,-0.0983791947365,-0.0141507554799,-9.69859600067,0.0,0.0,-2.11307263374,0.0,-0.0983791947365,-0.0141507554799,-9.69859600067,-0.00404707482085,0.00512325437739,-0.0150214880705,-0.039662797004,0.10689586401,0.43602925539,1019.90997314,-55.291759491,26.6399993896,0.0,0.0,0.0,0.0,0.244376599789,0.0,0.0,0.0,0.0,0.227059110999,0.0,0.0,0.0,10,1,0,20.0,1.00980997086,,,,,,,,,,,,,,,,,,,,-0.000487358454848,0.00960981380194,0.00215955590829,0.0,0,2,0,1.0,0,1,0.0,-0.0,0.0,0.0247524753213,-0.99816006422,0.776942372322,-0.998161792755,0.0,7,0,10.0,10.0,10.0,10.0,0.0,0.0,0.0,0.0,,,,-0.00600623618811,0.0755480229855,0.00798600539565,0,0,0.0,0.0,0.300000011921,0,77,,,,,,,,,,,,,,,,,,,,,,,,,,,,,,,,,11.8087615967,11.8941116333,-1.0,-1.0,,,,,,,,,,,,,,,,,,,,,,,,,,,,,,,,,,,,,,,,,,,,,,,,,,,,,,,,,,,,,,,,,,,,,,,,,,,,,,,,,,,,,,,,,,,,,,,,,,,,,,,6054580,PX4FMU_V1,251760679a4bed86fdb10746062fde2cc23e460f,test,305419904.0
0.00115213787649,-0.01499480661,-2.11741995811,0.00214557955042,-0.00355014787056,0.00298993987963,-0.00261092185974,-0.00741404853761,-9.65637969971,0.0,0.0,-2.11307263374,0.0,-0.00261092185974,-0.00741404853761,-9.65637969971,0.00354272988625,-0.00814280193299,-0.00394927710295,-0.0589277818799,0.129366204143,0.437809497118,1019.95996094,-55.7057571411,26.6599998474,0.0,0.0,0.0,0.0,0.245721355081,0.0,0.0,0.0,0.0,0.228043571115,0.0,0.0,0.0,10,1,0,20.0,1.00993001461,,,,,,,,,,,,,,,,,,,,-0.0010277585825,0.0102081475779,0.000202326787985,0.0,0,2,0,1.0,0,1,0.0,-0.0,0.0,0.0272277221084,-1.0,0.776942372322,-0.998161792755,0.0,7,0,10.0,10.0,10.0,10.0,0.0,0.0,0.0,0.0,,,,-0.00576025620103,0.0749740675092,0.00433878507465,-4,5,0.0203091781586,-0.02524433285,0.300000011921,43,77,,,,,,,,,,,,,,,,,,,,,,,,,,,,,,,,,11.8171424866,11.8939495087,-1.0,-1.0,,,,,,,,,,,,,,,,,,,,,,,,,,,,,,,,,,,,,,,,,,,,,,,,,,,,,,,,,,,,,,,,,,,,,,,,,,,,,,,,,,,,,,,,,,,,,,,,,,,,,,,6076531,PX4FMU_V1,251760679a4bed86fdb10746062fde2cc23e460f,test,305419904.0
0.00118856038898,-0.0151520194486,-2.11761569977,-0.00212199916132,-0.00178893760312,0.0063114608638,-0.0893479138613,-0.023464050144,-9.71626567841,0.0,0.0,-2.11307263374,0.0,-0.0893479138613,-0.023464050144,-9.71626567841,-0.00276367901824,0.00323647353798,0.00636619608849,-0.0259020999074,0.114385969937,0.432468831539,1019.91998291,-55.3745613098,26.6599998474,0.0,0.0,0.0,0.0,0.250720977783,0.0,0.0,0.0,0.0,0.230334430933,0.0,0.0,0.0,10,1,0,20.0,1.01005017757,,,,,,,,,,,,,,,,,,,,-0.000496644875966,0.0100813768804,-0.000266580085736,0.0,0,2,0,1.0,0,1,0.0,-0.0,0.0,0.0247524753213,-1.0,0.779448628426,-0.998161792755,0.0,7,0,10.0,10.0,10.0,10.0,0.0,0.0,0.0,0.0,,,,-0.00594234466553,0.0757601186633,0.00453426036984,0,0,0.0,0.0,0.300000011921,0,77,,,,,,,,,,,,,,,,,,,,,,,,,,,,,,,,,11.8171424866,11.8938045502,-1.0,-1.0,,,,,,,,,,,,,,,,,,,,,,,,,,,,,,,,,,,,,,,,,,,,,,,,,,,,,,,,,,,,,,,,,,,,,,,,,,,,,,,,,,,,,,,,,,,,,,,,,,,,,,,6097767,PX4FMU_V1,251760679a4bed86fdb10746062fde2cc23e460f,test,305419904.0
0.00112492986955,-0.0150233553723,-2.11546063423,0.000403678423027,-0.00271877227351,0.000186093602679,0.081519305706,0.0944008678198,-9.70429706573,0.0,0.0,-2.11307263374,0.0,0.081519305706,0.0944008678198,-9.70429706573,0.00242309551686,-0.00885277520865,0.00756856799126,-0.01122400444,0.121876083314,0.435139149427,1019.88000488,-55.0433540344,26.6599998474,0.0,0.0,0.0,0.0,0.250388085842,0.0,0.0,0.0,0.0,0.230192646384,0.0,0.0,0.0,10,1,0,20.0,1.01017081738,,,,,,,,,,,,,,,,,,,,-0.000783627328929,0.0101186186075,0.000329016736941,0.0,0,2,0,1.0,0,1,0.0,-0.0,0.0,0.0272277221084,-1.0,0.776942372322,-0.998161792755,0.0,7,0,10.0,10.0,10.0,10.0,0.0,0.0,0.0,0.0,,,,-0.00562422443181,0.0751167610288,0.00237953849137,0,0,0.0,0.0,0.300000011921,0,77,,,,,,,,,,,,,,,,,,,,,,,,,,,,,,,,,11.8171424866,11.8936595917,-1.0,-1.0,,,,,,,,,,,,,,,,,,,,,,,,,,,,,,,,,,,,,,,,,,,,,,,,,,,,,,,,,,,,,,,,,,,,,,,,,,,,,,,,,,,,,,,,,,,,,,,,,,,,,,,6120700,PX4FMU_V1,251760679a4bed86fdb10746062fde2cc23e460f,test,305419904.0
0.00118697725702,-0.0152083123103,-2.11849617958,-0.000707121100277,-0.00373958237469,0.00342689570971,-0.310756951571,-0.0235436279327,-9.77857017517,0.0,0.0,-2.11307263374,0.0,-0.310756951571,-0.0235436279327,-9.77857017517,-0.00316835893318,0.00150584382936,-0.00149503885768,-0.111218452454,0.129366204143,0.429798513651,1019.95996094,-55.7057571411,26.6499996185,0.0,0.0,0.0,0.0,0.250916391611,0.0,0.0,0.0,0.0,0.230779096484,0.0,0.0,0.0,10,1,0,20.0,1.01023113728,,,,,,,,,,,,,,,,,,,,-0.000679550576024,0.0103715509176,0.00029813798028,0.0,0,2,0,1.0,0,1,0.0,-0.0,0.0,0.0247524753213,-1.0,0.776942372322,-0.998161792755,0.0,7,0,10.0,10.0,10.0,10.0,0.0,0.0,0.0,0.0,,,,-0.00593443354592,0.0760415866971,0.00541448220611,0,0,0.0,0.0,0.300000011921,0,77,,,,,,,,,,,,,,,,,,,,,,,,,,,,,,,,,11.8087615967,11.8934984207,-1.0,-1.0,,,,,,,,,,,,,,,,,,,,,,,,,,,,,,,,,,,,,,,,,,,,,,,,,,,,,,,,,,,,,,,,,,,,,,,,,,,,,,,,,,,,,,,,,,,,,,,,,,,,,,,6141245,PX4FMU_V1,251760679a4bed86fdb10746062fde2cc23e460f,test,305419904.0
0.00112966704182,-0.0150740947574,-2.11958098412,-0.00322122476064,0.00175008061342,-0.0012759459205,0.0634905993938,0.114857375622,-9.63244247437,0.0,0.0,-2.11307263374,0.0,0.0634905993938,0.114857375622,-9.63244247437,-0.00344698852859,-0.00222372962162,-0.00151788257062,-0.118557490408,0.11521820724,0.417337030172,1019.94995117,-55.622959137,26.6499996185,0.0,0.0,0.0,0.0,0.254728525877,0.0,0.0,0.0,0.0,0.23238375783,0.0,0.0,0.0,10,1,0,20.0,1.0103508234,,,,,,,,,,,,,,,,,,,,-0.000315469544148,0.00957065075636,0.00116635498125,0.0,0,2,0,1.0,0,1,0.0,-0.0,0.0,0.0247524753213,-1.0,0.776942372322,-0.998161792755,0.0,7,0,10.0,10.0,10.0,10.0,0.0,0.0,0.0,0.0,,,,-0.00564791355282,0.0753704756498,0.00649975333363,1,23,-0.0109880957752,-0.212651908398,0.300000011921,43,77,,,,,,,,,,,,,,,,,,,,,,,,,,,,,,,,,11.8171424866,11.8934221268,-1.0,-1.0,,,,,,,,,,,,,,,,,,,,,,,,,,,,,,,,,,,,,,,,,,,,,,,,,,,,,,,,,,,,,,,,,,,,,,,,,,,,,,,,,,,,,,,,,,,,,,,,,,,,,,,6162597,PX4FMU_V1,251760679a4bed86fdb10746062fde2cc23e460f,test,305419904.0
0.00119450560305,-0.0152092380449,-2.11763167381,0.00219537061639,-0.0021193921566,0.00942019652575,-0.405995965004,-0.165893048048,-9.67209911346,0.0,0.0,-2.11307263374,0.0,-0.405995965004,-0.165893048048,-9.67209911346,0.000329515401972,0.0039213928394,0.011935823597,-0.0479192212224,0.136024072766,0.433358937502,1019.94995117,-55.622959137,26.6499996185,0.0,0.0,0.0,0.0,0.260084807873,0.0,0.0,0.0,0.0,0.235478445888,0.0,0.0,0.0,10,1,0,20.0,1.01047098637,,,,,,,,,,,,,,,,,,,,-0.00106176768895,0.0101615311578,-0.000730512314476,0.0,0,2,0,1.0,0,1,0.0,-0.0,0.0,0.0247524753213,-1.0,0.776942372322,-0.998161792755,0.0,7,0,10.0,10.0,10.0,10.0,0.0,0.0,0.0,0.0,,,,-0.00597207294777,0.0760462358594,0.00455011473969,6,-18,-0.0601627081633,0.164855122566,0.300000011921,0,77,,,,,,,,,,,,,,,,,,,,,,,,,,,,,,,,,11.8171424866,11.8932695389,-1.0,-1.0,,,,,,,,,,,,,,,,,,,,,,,,,,,,,,,,,,,,,,,,,,,,,,,,,,,,,,,,,,,,,,,,,,,,,,,,,,,,,,,,,,,,,,,,,,,,,,,,,,,,,,,6184801,PX4FMU_V1,251760679a4bed86fdb10746062fde2cc23e460f,test,305419904.0
0.00114869500976,-0.0150748901069,-2.11563825607,-0.00385021790862,0.0010861705523,-0.00408651679754,0.12769292295,0.0691079646349,-9.61106109619,0.0,0.0,-2.11307263374,0.0,0.12769292295,0.0691079646349,-9.61106109619,-0.00577077362686,-0.00409093918279,-0.000391862704419,-0.0763580128551,0.108560331166,0.430688619614,1019.94000244,-55.5401611328,26.6599998474,0.0,0.0,0.0,0.0,0.260084807873,0.0,0.0,0.0,0.0,0.235478445888,0.0,0.0,0.0,10,1,0,20.0,1.01047098637,,,,,,,,,,,,,,,,,,,,-0.00106176768895,0.0101615311578,-0.000730512314476,0.0,0,2,0,1.0,0,1,0.0,-0.0,0.0,0.0247524753213,-1.0,0.776942372322,-0.998161792755,0.0,7,0,10.0,10.0,10.0,10.0,0.0,0.0,0.0,0.0,,,,-0.00597207294777,0.0760462358594,0.00455011473969,6,-18,-0.0601627081633,0.164855122566,0.300000011921,0,77,,,,,,,,,,,,,,,,,,,,,,,,,,,,,,,,,11.8171424866,11.8932695389,-1.0,-1.0,,,,,,,,,,,,,,,,,,,,,,,,,,,,,,,,,,,,,,,,,,,,,,,,,,,,,,,,,,,,,,,,,,,,,,,,,,,,,,,,,,,,,,,,,,,,,,,,,,,,,,,6205669,PX4FMU_V1,251760679a4bed86fdb10746062fde2cc23e460f,test,305419904.0
0.00101193296723,-0.0151427192613,-2.10574841499,0.000230021061725,0.000780138070695,-0.00831094384193,-0.0216316245496,0.117040984333,-9.72649002075,0.0,0.0,-2.11307263374,0.0,-0.0216316245496,0.117040984333,-9.72649002075,0.00475971726701,-0.00176089594606,-0.0164538230747,-0.0488366037607,0.11521820724,0.431578755379,1019.91998291,-55.3745613098,26.6599998474,0.0,0.0,0.0,0.0,0.296780437231,0.0,0.0,0.0,0.0,0.252294123173,0.0,0.0,0.0,10,1,0,20.0,1.01173400879,,,,,,,,,,,,,,,,,,,,-0.000687609135639,0.00974135193974,0.000146868129377,0.0,0,2,0,1.0,0,1,0.0,-0.0,0.0,0.0247524753213,-1.0,0.776942372322,-0.998161792755,0.0,7,0,10.0,10.0,10.0,10.0,0.0,0.0,0.0,0.0,,,,-0.00505928043276,0.0757136121392,-0.00733182299882,5,-15,-0.0957316681743,0.297781378031,0.300000011921,0,77,,,,,,,,,,,,,,,,,,,,,,,,,,,,,,,,,11.8171424866,11.891658783,-1.0,-1.0,,,,,,,,,,,,,,,,,,,,,,,,,,,,,,,,,,,,,,,,,,,,,,,,,,,,,,,,,,,,,,,,,,,,,,,,,,,,,,,,,,,,,,,,,,,,,,,,,,,,,,,6442811,PX4FMU_V1,251760679a4bed86fdb10746062fde2cc23e460f,test,305419904.0
0.0011429998558,-0.0152417542413,-2.10684990883,-0.00415071379393,-0.00432708812878,0.0144201274961,-0.255810022354,-0.0618700608611,-9.68793869019,0.0,0.0,-2.11307263374,0.0,-0.255810022354,-0.0618700608611,-9.68793869019,-0.0134963290766,-0.00500350864604,0.0119812404737,-0.0947056040168,0.0960768088698,0.422677665949,1019.94995117,-55.622959137,26.6800003052,0.0,0.0,0.0,0.0,0.301598668098,0.0,0.0,0.0,0.0,0.254306018353,0.0,0.0,0.0,10,1,0,20.0,1.01185452938,,,,,,,,,,,,,,,,,,,,-0.000203299627174,0.0104696648195,-0.00309771718457,0.0,0,2,0,1.0,0,1,0.0,-0.0,0.0,0.0247524753213,-1.0,0.776942372322,-0.998161792755,0.0,7,0,10.0,10.0,10.0,10.0,0.0,0.0,0.0,0.0,,,,-0.00571455713362,0.0762088000774,-0.00623131869361,-3,-1,0.0861585065722,0.0375680141151,0.300000011921,0,77,,,,,,,,,,,,,,,,,,,,,,,,,,,,,,,,,11.8171424866,11.8915100098,-1.0,-1.0,,,,,,,,,,,,,,,,,,,,,,,,,,,,,,,,,,,,,,,,,,,,,,,,,,,,,,,,,,,,,,,,,,,,,,,,,,,,,,,,,,,,,,,,,,,,,,,,,,,,,,,6465289,PX4FMU_V1,251760679a4bed86fdb10746062fde2cc23e460f,test,305419904.0
0.000993381952867,-0.0151630053297,-2.10322666168,-0.000557677005418,-5.97460930294e-05,-0.00629954133183,0.0257150232792,0.156989946961,-9.74613285065,0.0,0.0,-2.11307263374,0.0,0.0257150232792,0.156989946961,-9.74613285065,0.00607497058809,-0.00133569561876,-0.00810615438968,-0.039662797004,0.153501003981,0.434249043465,1019.94000244,-55.5401611328,26.6800003052,0.0,0.0,0.0,0.0,0.306578695774,0.0,0.0,0.0,0.0,0.256439179182,0.0,0.0,0.0,10,1,0,20.0,1.01197528839,,,,,,,,,,,,,,,,,,,,-0.000573150755372,0.00986371934414,-0.000533088517841,0.0,0,2,0,1.0,0,1,0.0,-0.0,0.0,0.0247524753213,-1.0,0.776942372322,-0.998161792755,0.0,7,0,10.0,10.0,10.0,10.0,0.0,0.0,0.0,0.0,,,,-0.00496652908623,0.0758150219917,-0.00985346455127,3,-10,-0.0808659717441,0.243814721704,0.300000011921,43,77,,,,,,,,,,,,,,,,,,,,,,,,,,,,,,,,,11.8171424866,11.8914356232,-1.0,-1.0,,,,,,,,,,,,,,,,,,,,,,,,,,,,,,,,,,,,,,,,,,,,,,,,,,,,,,,,,,,,,,,,,,,,,,,,,,,,,,,,,,,,,,,,,,,,,,,,,,,,,,,6486156,PX4FMU_V1,251760679a4bed86fdb10746062fde2cc23e460f,test,305419904.0
0.00116673344746,-0.0151976076886,-2.1035618782,0.00276272953488,-0.00290318159387,0.0105958618224,-0.173699676991,-0.257342278957,-9.68922805786,0.0,0.0,-2.11307263374,0.0,-0.173699676991,-0.257342278957,-9.68922805786,-0.00445608934388,-0.00524625135586,0.0223323516548,-0.0781927853823,0.0952445790172,0.420897454023,1019.95996094,-55.7057571411,26.6700000763,0.0,0.0,0.0,0.0,0.311234593391,0.0,0.0,0.0,0.0,0.258582830429,0.0,0.0,0.0,10,1,0,20.0,1.0120960474,,,,,,,,,,,,,,,,,,,,-0.00111747253686,0.0102558573708,-0.0030173372943,0.0,0,2,0,1.0,0,1,0.0,-0.0,0.0,0.0247524753213,-1.0,0.779448628426,-0.998161792755,0.0,7,0,10.0,10.0,10.0,10.0,0.0,0.0,0.0,0.0,,,,-0.0058332127519,0.0759880319238,-0.00951971951872,0,0,0.0,0.0,0.300000011921,0,77,,,,,,,,,,,,,,,,,,,,,,,,,,,,,,,,,11.8087615967,11.89128685,-1.0,-1.0,,,,,,,,,,,,,,,,,,,,,,,,,,,,,,,,,,,,,,,,,,,,,,,,,,,,,,,,,,,,,,,,,,,,,,,,,,,,,,,,,,,,,,,,,,,,,,,,,,,,,,,6507519,PX4FMU_V1,251760679a4bed86fdb10746062fde2cc23e460f,test,305419904.0
0.000961029843893,-0.0152254076675,-2.1026506424,-0.00263707758859,-0.000629845599178,-0.00956826284528,0.042954903096,0.227371707559,-9.74634075165,0.0,0.0,-2.11307263374,0.0,0.042954903096,0.227371707559,-9.74634075165,0.00567450094968,0.000493930885568,-0.0137714175507,-0.0892013311386,0.100237980485,0.423567771912,1019.94000244,-55.5401611328,26.6700000763,0.0,0.0,0.0,0.0,0.316176235676,0.0,0.0,0.0,0.0,0.260514825583,0.0,0.0,0.0,10,1,0,20.0,1.01221573353,,,,,,,,,,,,,,,,,,,,-0.000281800981611,0.00997839681804,-0.000129156047478,0.0,0,2,0,1.0,0,1,0.0,-0.0,0.0,0.0247524753213,-1.0,0.776942372322,-0.998161792755,0.0,7,0,10.0,10.0,10.0,10.0,0.0,0.0,0.0,0.0,,,,-0.00480477744713,0.0761270597577,-0.0104293031618,0,0,0.0,0.0,0.300000011921,0,77,,,,,,,,,,,,,,,,,,,,,,,,,,,,,,,,,11.8255233765,11.8911466599,-1.0,-1.0,,,,,,,,,,,,,,,,,,,,,,,,,,,,,,,,,,,,,,,,,,,,,,,,,,,,,,,,,,,,,,,,,,,,,,,,,,,,,,,,,,,,,,,,,,,,,,,,,,,,,,,6529582,PX4FMU_V1,251760679a4bed86fdb10746062fde2cc23e460f,test,305419904.0
0.00118602870498,-0.0152098182589,-2.10116767883,0.00605415645987,-0.00152770977002,0.00804759096354,-0.162009179592,-0.346476852894,-9.69932937622,0.0,0.0,-2.11307263374,0.0,-0.162009179592,-0.346476852894,-9.69932937622,-0.00274479249492,-0.00583710242063,0.0202967170626,-0.035075891763,0.14517866075,0.433358937502,1019.94000244,-55.5401611328,26.6700000763,0.0,0.0,0.0,0.0,0.318312108517,0.0,0.0,0.0,0.0,0.261732071638,0.0,0.0,0.0,10,1,0,20.0,1.01227557659,,,,,,,,,,,,,,,,,,,,-0.00155789987184,0.0100849848241,-0.00299421604723,0.0,0,2,0,1.0,0,1,0.0,-0.0,0.0,0.0247524753213,-1.0,0.776942372322,-0.998161792755,0.0,7,0,10.0,10.0,10.0,10.0,0.0,0.0,0.0,0.0,,,,-0.0059296884574,0.0760490968823,-0.0119138490409,0,0,0.0,0.0,0.300000011921,0,77,,,,,,,,,,,,,,,,,,,,,,,,,,,,,,,,,11.8171424866,11.8909978867,-1.0,-1.0,,,,,,,,,,,,,,,,,,,,,,,,,,,,,,,,,,,,,,,,,,,,,,,,,,,,,,,,,,,,,,,,,,,,,,,,,,,,,,,,,,,,,,,,,,,,,,,,,,,,,,,6550509,PX4FMU_V1,251760679a4bed86fdb10746062fde2cc23e460f,test,305419904.0
0.000965666084085,-0.0153178172186,-2.09996700287,-0.0083964811638,-0.00217099720612,-0.00259701302275,-0.0526124499738,0.266804814339,-9.67034339905,0.0,0.0,-2.11307263374,0.0,-0.0526124499738,0.266804814339,-9.67034339905,0.000679637654684,0.00286844256334,-0.0135804750025,-0.0488366037607,0.118547149003,0.415556818247,1019.94000244,-55.5401611328,26.6700000763,0.0,0.0,0.0,0.0,0.322104811668,0.0,0.0,0.0,0.0,0.262923032045,0.0,0.0,0.0,10,1,0,20.0,1.01239597797,,,,,,,,,,,,,,,,,,,,0.00046390859643,0.0102388104424,-0.00157739967108,0.0,0,2,0,1.0,0,1,0.0,-0.0,0.0,0.0272277221084,-1.0,0.776942372322,-0.998161792755,0.0,7,0,10.0,10.0,10.0,10.0,0.0,0.0,0.0,0.0,,,,-0.0048279534094,0.0765890851617,-0.0131130097434,0,0,0.0,0.0,0.300000011921,0,77,,,,,,,,,,,,,,,,,,,,,,,,,,,,,,,,,11.8255233765,11.8909320831,-1.0,-1.0,,,,,,,,,,,,,,,,,,,,,,,,,,,,,,,,,,,,,,,,,,,,,,,,,,,,,,,,,,,,,,,,,,,,,,,,,,,,,,,,,,,,,,,,,,,,,,,,,,,,,,,6571740,PX4FMU_V1,251760679a4bed86fdb10746062fde2cc23e460f,test,305419904.0
0.00120918918401,-0.0152123877779,-2.10314154625,0.00664181541651,-0.00107203715015,0.00498344283551,-0.0437378548086,-0.379402518272,-9.70122051239,0.0,0.0,-2.11307263374,0.0,-0.0437378548086,-0.379402518272,-9.70122051239,-0.003339411458,-0.0056076310575,0.0220769047737,-0.0717710927129,0.117714904249,0.422677665949,1019.90997314,-55.291759491,26.6700000763,0.0,0.0,0.0,0.0,0.32436773181,0.0,0.0,0.0,0.0,0.263730019331,0.0,0.0,0.0,10,1,0,20.0,1.01251590252,,,,,,,,,,,,,,,,,,,,-0.00164934818167,0.010027420707,-0.00223855418153,0.0,0,2,0,1.0,0,1,0.0,-0.0,0.0,0.0272277221084,-1.0,0.776942372322,-0.998161792755,0.0,7,0,10.0,10.0,10.0,10.0,0.0,0.0,0.0,0.0,,,,-0.00604547839612,0.0760619714856,-0.00994025170803,0,0,0.0,0.0,0.300000011921,0,77,,,,,,,,,,,,,,,,,,,,,,,,,,,,,,,,,11.8255233765,11.8908004761,-1.0,-1.0,,,,,,,,,,,,,,,,,,,,,,,,,,,,,,,,,,,,,,,,,,,,,,,,,,,,,,,,,,,,,,,,,,,,,,,,,,,,,,,,,,,,,,,,,,,,,,,,,,,,,,,6593711,PX4FMU_V1,251760679a4bed86fdb10746062fde2cc23e460f,test,305419904.0
0.000999279553071,-0.0153388343751,-2.1047308445,-0.00785580463707,-0.00258853216656,0.00257589807734,-0.0767976343632,0.192334234715,-9.66043281555,0.0,0.0,-2.11307263374,0.0,-0.0767976343632,0.192334234715,-9.66043281555,0.000342075945809,0.00393920578063,-0.00885894428939,-0.0956229865551,0.132695138454,0.445820450783,1019.98999023,-55.9541473389,26.6800003052,0.0,0.0,0.0,0.0,0.329629361629,0.0,0.0,0.0,0.0,0.265070825815,0.0,0.0,0.0,10,1,0,20.0,1.0126363039,,,,,,,,,,,,,,,,,,,,0.000371774367522,0.0103067532182,-0.00163880328182,0.0,0,2,0,1.0,0,1,0.0,-0.0,0.0,0.0247524753213,-1.0,0.776942372322,-0.998161792755,0.0,7,0,10.0,10.0,10.0,10.0,0.0,0.0,0.0,0.0,,,,-0.00499600172043,0.0766941905022,-0.00834945682436,14,10,-0.0923300385475,-0.0686154216528,0.300000011921,43,77,,,,,,,,,,,,,,,,,,,,,,,,,,,,,,,,,11.8171424866,11.8906536102,-1.0,-1.0,,,,,,,,,,,,,,,,,,,,,,,,,,,,,,,,,,,,,,,,,,,,,,,,,,,,,,,,,,,,,,,,,,,,,,,,,,,,,,,,,,,,,,,,,,,,,,,,,,,,,,,6614437,PX4FMU_V1,251760679a4bed86fdb10746062fde2cc23e460f,test,305419904.0
0.00115593872033,-0.0152105493471,-2.10191512108,0.0102933300659,0.00192010216415,-0.00853107497096,-0.0210295692086,-0.256118386984,-9.6525478363,0.0,0.0,-2.11307263374,0.0,-0.0210295692086,-0.256118386984,-9.6525478363,0.00956417061388,-0.0022444978822,0.00555776199326,-0.0424149334431,0.111057035625,0.429798513651,1019.91998291,-55.3745613098,26.6800003052,0.0,0.0,0.0,0.0,0.333235353231,0.0,0.0,0.0,0.0,0.26613715291,0.0,0.0,0.0,10,1,0,20.0,1.01269626617,,,,,,,,,,,,,,,,,,,,-0.0020894354675,0.00963724777102,-0.000395265698899,0.0,0,2,0,1.0,0,1,0.0,-0.0,0.0,0.0272277221084,-1.0,0.776942372322,-0.998161792755,0.0,7,0,10.0,10.0,10.0,10.0,0.0,0.0,0.0,0.0,,,,-0.00577925052494,0.0760527849197,-0.0111661795527,0,0,0.0,0.0,0.300000011921,0,77,,,,,,,,,,,,,,,,,,,,,,,,,,,,,,,,,11.8171424866,11.8905153275,-1.0,-1.0,,,,,,,,,,,,,,,,,,,,,,,,,,,,,,,,,,,,,,,,,,,,,,,,,,,,,,,,,,,,,,,,,,,,,,,,,,,,,,,,,,,,,,,,,,,,,,,,,,,,,,,6635303,PX4FMU_V1,251760679a4bed86fdb10746062fde2cc23e460f,test,305419904.0
0.000998933799565,-0.0153938438743,-2.10209369659,-0.0106188533828,-0.00412909081206,0.00065596960485,-0.0845874771476,0.226605683565,-9.69476509094,0.0,0.0,-2.11307263374,0.0,-0.0845874771476,0.226605683565,-9.69476509094,-0.00299637345597,0.0031424711924,-0.013710802421,-0.0699363574386,0.112721502781,0.440479785204,1020.0,-56.0369415283,26.6800003052,0.0,0.0,0.0,0.0,0.33612716198,0.0,0.0,0.0,0.0,0.267133295536,0.0,0.0,0.0,10,1,0,20.0,1.01281678677,,,,,,,,,,,,,,,,,,,,0.0007311947993,0.0105427820235,-0.00174638675526,0.0,0,2,0,1.0,0,1,0.0,-0.0,0.0,0.0247524753213,-1.0,0.776942372322,-0.998161792755,0.0,7,0,10.0,10.0,10.0,10.0,0.0,0.0,0.0,0.0,,,,-0.00499427784234,0.0769692361355,-0.0109866084531,0,0,0.0,0.0,0.300000011921,0,77,,,,,,,,,,,,,,,,,,,,,,,,,,,,,,,,,11.8255233765,11.8903770447,-1.0,-1.0,,,,,,,,,,,,,,,,,,,,,,,,,,,,,,,,,,,,,,,,,,,,,,,,,,,,,,,,,,,,,,,,,,,,,,,,,,,,,,,,,,,,,,,,,,,,,,,,,,,,,,,6657952,PX4FMU_V1,251760679a4bed86fdb10746062fde2cc23e460f,test,305419904.0
0.00118298339657,-0.0152576025575,-2.09992909431,0.0130232702941,0.0033720000647,-0.0072150840424,-0.0188476927578,-0.333973556757,-9.5926027298,0.0,0.0,-2.11307263374,0.0,-0.0188476927578,-0.333973556757,-9.5926027298,0.0126027381048,0.000505387026351,0.00100590253714,-0.0359932780266,0.121876083314,0.421787559986,1019.94995117,-55.622959137,26.6800003052,0.0,0.0,0.0,0.0,0.344183534384,0.0,0.0,0.0,0.0,0.269839435816,0.0,0.0,0.0,10,1,0,20.0,1.01293766499,,,,,,,,,,,,,,,,,,,,-0.00246190512553,0.00947908591479,-0.000890621449798,0.0,0,2,0,1.0,0,1,0.0,-0.0,0.0,0.0247524753213,-1.0,0.776942372322,-0.998161792755,0.0,7,0,10.0,10.0,10.0,10.0,0.0,0.0,0.0,0.0,,,,-0.00591446179897,0.0762880444527,-0.0131525602192,0,0,0.0,0.0,0.300000011921,0,77,,,,,,,,,,,,,,,,,,,,,,,,,,,,,,,,,11.8171424866,11.8903036118,-1.0,-1.0,,,,,,,,,,,,,,,,,,,,,,,,,,,,,,,,,,,,,,,,,,,,,,,,,,,,,,,,,,,,,,,,,,,,,,,,,,,,,,,,,,,,,,,,,,,,,,,,,,,,,,,6678622,PX4FMU_V1,251760679a4bed86fdb10746062fde2cc23e460f,test,305419904.0
0.0011143690208,-0.0153979100287,-2.09940719604,-0.0126150157303,-0.00750428112224,0.0119643472135,-0.232506901026,0.071555800736,-9.7414264679,0.0,0.0,-2.11307263374,0.0,-0.232506901026,0.071555800736,-9.7414264679,-0.0159779451787,-0.00587335694581,0.00354661187157,-0.0561756454408,0.154333248734,0.428018301725,1019.94000244,-55.5401611328,26.6800003052,0.0,0.0,0.0,0.0,0.348655104637,0.0,0.0,0.0,0.0,0.271767169237,0.0,0.0,0.0,10,1,0,20.0,1.01305687428,,,,,,,,,,,,,,,,,,,,0.00091566942865,0.0109842028469,-0.00384575710632,0.0,0,2,0,1.0,0,1,0.0,-0.0,0.0,0.0247524753213,-1.0,0.776942372322,-0.998161792755,0.0,7,0,10.0,10.0,10.0,10.0,0.0,0.0,0.0,0.0,,,,-0.00557140447199,0.0769895836711,-0.0136740310118,0,0,0.0,0.0,0.300000011921,0,77,,,,,,,,,,,,,,,,,,,,,,,,,,,,,,,,,11.8087615967,11.8901491165,-1.0,-1.0,,,,,,,,,,,,,,,,,,,,,,,,,,,,,,,,,,,,,,,,,,,,,,,,,,,,,,,,,,,,,,,,,,,,,,,,,,,,,,,,,,,,,,,,,,,,,,,,,,,,,,,6699772,PX4FMU_V1,251760679a4bed86fdb10746062fde2cc23e460f,test,305419904.0
0.00117990327999,-0.0152593301609,-2.1016805172,0.0131941456348,0.00611360790208,-0.0122057087719,0.00705959182233,-0.228615552187,-9.66481685638,0.0,0.0,-2.11307263374,0.0,0.00705959182233,-0.228615552187,-9.66481685638,0.0158818010241,0.00514880102128,-0.00549900531769,-0.0644320696592,0.0819288119674,0.43602925539,1019.91998291,-55.3745613098,26.6800003052,0.0,0.0,0.0,0.0,0.351486623287,0.0,0.0,0.0,0.0,0.272313416004,0.0,0.0,0.0,10,1,0,20.0,1.01317715645,,,,,,,,,,,,,,,,,,,,-0.00248211645521,0.0091237956658,0.000120687538583,0.0,0,2,0,1.0,0,1,0.0,-0.0,0.0,0.0247524753213,-1.0,0.776942372322,-0.998161792755,0.0,7,0,10.0,10.0,10.0,10.0,0.0,0.0,0.0,0.0,,,,-0.0058990586549,0.0762966573238,-0.0114011252299,0,0,0.0,0.0,0.300000011921,0,77,,,,,,,,,,,,,,,,,,,,,,,,,,,,,,,,,11.8171424866,11.8900032043,-1.0,-1.0,,,,,,,,,,,,,,,,,,,,,,,,,,,,,,,,,,,,,,,,,,,,,,,,,,,,,,,,,,,,,,,,,,,,,,,,,,,,,,,,,,,,,,,,,,,,,,,,,,,,,,,6722265,PX4FMU_V1,251760679a4bed86fdb10746062fde2cc23e460f,test,305419904.0
0.00111493677832,-0.0154174948111,-2.09859228134,-0.0162669569254,-0.0109550384805,0.0143700921908,-0.281014382839,0.151804283261,-9.72233963013,0.0,0.0,-2.11307263374,0.0,-0.281014382839,0.151804283261,-9.72233963013,-0.022562943399,-0.0106482515112,0.00662372168154,-0.0681015923619,0.170977935195,0.430688619614,1019.90997314,-55.291759491,26.6800003052,0.0,0.0,0.0,0.0,0.352393507957,0.0,0.0,0.0,0.0,0.272642016411,0.0,0.0,0.0,10,1,0,20.0,1.01323723793,,,,,,,,,,,,,,,,,,,,0.00139005261008,0.0114455278963,-0.00432884087786,0.0,0,2,0,1.0,0,1,0.0,-0.0,0.0,0.0247524753213,-1.0,0.776942372322,-0.998161792755,0.0,7,0,10.0,10.0,10.0,10.0,0.0,0.0,0.0,0.0,,,,-0.00557424407452,0.0770874917507,-0.014488844201,0,0,0.0,0.0,0.300000011921,0,77,,,,,,,,,,,,,,,,,,,,,,,,,,,,,,,,,11.8171424866,11.8898582458,-1.0,-1.0,,,,,,,,,,,,,,,,,,,,,,,,,,,,,,,,,,,,,,,,,,,,,,,,,,,,,,,,,,,,,,,,,,,,,,,,,,,,,,,,,,,,,,,,,,,,,,,,,,,,,,,6743284,PX4FMU_V1,251760679a4bed86fdb10746062fde2cc23e460f,test,305419904.0
0.00107553077396,-0.0153334392235,-2.09754109383,0.0109105342999,0.00562773644924,-0.0135656669736,-0.0658011138439,-0.0496008843184,-9.69218635559,0.0,0.0,-2.11307263374,0.0,-0.0658011138439,-0.0496008843184,-9.69218635559,0.0201096758246,0.00827769376338,-0.0196501594037,-0.0644320696592,0.175139114261,0.425347983837,1019.9699707,-55.7885551453,26.6899986267,0.0,0.0,0.0,0.0,0.353531658649,0.0,0.0,0.0,0.0,0.272395968437,0.0,0.0,0.0,10,1,0,20.0,1.01335763931,,,,,,,,,,,,,,,,,,,,-0.00211741030216,0.00923513155431,-0.000296119251288,0.0,0,2,0,1.0,0,1,0.0,-0.0,0.0,0.0247524753213,-1.0,0.776942372322,-0.998161792755,0.0,7,0,10.0,10.0,10.0,10.0,0.0,0.0,0.0,0.0,,,,-0.00537723768502,0.0766672119498,-0.0155397951603,11,10,0.048107970506,0.0423238761723,0.300000011921,0,77,,,,,,,,,,,,,,,,,,,,,,,,,,,,,,,,,11.8171424866,11.8897857666,-1.0,-1.0,,,,,,,,,,,,,,,,,,,,,,,,,,,,,,,,,,,,,,,,,,,,,,,,,,,,,,,,,,,,,,,,,,,,,,,,,,,,,,,,,,,,,,,,,,,,,,,,,,,,,,,6764464,PX4FMU_V1,251760679a4bed86fdb10746062fde2cc23e460f,test,305419904.0
0.00114817754366,-0.0154100786895,-2.10089111328,-0.0144230686128,-0.0114967795089,0.0176916830242,-0.367519199848,0.112128302455,-9.69459342957,0.0,0.0,-2.11307263374,0.0,-0.367519199848,0.112128302455,-9.69459342957,-0.0252667479217,-0.0151876080781,0.0144561715424,-0.0745232477784,0.110224798322,0.428908407688,1019.94995117,-55.622959137,26.6899986267,0.0,0.0,0.0,0.0,0.359962165356,0.0,0.0,0.0,0.0,0.27583193779,0.0,0.0,0.0,10,1,0,20.0,1.01347768307,,,,,,,,,,,,,,,,,,,,0.00112874270417,0.0115111339837,-0.00448231352493,0.0,0,2,0,1.0,0,1,0.0,-0.0,0.0,0.0247524753213,-1.0,0.776942372322,-0.998161792755,0.0,7,0,10.0,10.0,10.0,10.0,0.0,0.0,0.0,0.0,,,,-0.00574043253437,0.0770504027605,-0.0121904062107,0,0,0.0,0.0,0.300000011921,0,77,,,,,,,,,,,,,,,,,,,,,,,,,,,,,,,,,11.8087615967,11.8896408081,-1.0,-1.0,,,,,,,,,,,,,,,,,,,,,,,,,,,,,,,,,,,,,,,,,,,,,,,,,,,,,,,,,,,,,,,,,,,,,,,,,,,,,,,,,,,,,,,,,,,,,,,,,,,,,,,6785956,PX4FMU_V1,251760679a4bed86fdb10746062fde2cc23e460f,test,305419904.0
0.00104120280594,-0.0153616880998,-2.10120391846,0.00943106040359,0.00743875605986,-0.0129659669474,-0.00883078761399,0.0489143952727,-9.62162876129,0.0,0.0,-2.11307263374,0.0,-0.00883078761399,0.0489143952727,-9.62162876129,0.021989364177,0.0135749299079,-0.0146843483672,-0.0791101381183,0.110224798322,0.440479785204,1019.94995117,-55.622959137,26.6899986267,0.0,0.0,0.0,0.0,0.365077376366,0.0,0.0,0.0,0.0,0.277949690819,0.0,0.0,0.0,10,1,0,20.0,1.01359784603,,,,,,,,,,,,,,,,,,,,-0.00190276594367,0.00901805702597,0.000163401855389,0.0,0,2,0,1.0,0,1,0.0,-0.0,0.0,0.0247524753213,-1.0,0.776942372322,-0.998161792755,0.0,7,0,10.0,10.0,10.0,10.0,0.0,0.0,0.0,0.0,,,,-0.00520560191944,0.0768084302545,-0.0118766212836,0,0,0.0,0.0,0.300000011921,0,77,,,,,,,,,,,,,,,,,,,,,,,,,,,,,,,,,11.8171424866,11.8895044327,-1.0,-1.0,,,,,,,,,,,,,,,,,,,,,,,,,,,,,,,,,,,,,,,,,,,,,,,,,,,,,,,,,,,,,,,,,,,,,,,,,,,,,,,,,,,,,,,,,,,,,,,,,,,,,,,6807351,PX4FMU_V1,251760679a4bed86fdb10746062fde2cc23e460f,test,305419904.0
0.00123001681641,-0.0153428474441,-2.0976395607,-0.0052613383159,-0.0076210629195,0.0130133600906,-0.0919740945101,-0.199634298682,-9.55925178528,0.0,0.0,-2.11307263374,0.0,-0.0919740945101,-0.199634298682,-9.55925178528,-0.0187495779246,-0.0151421548799,0.0226333998144,-0.0662668198347,0.160158902407,0.428908407688,1019.97998047,-55.8713493347,26.6800003052,0.0,0.0,0.0,0.0,0.368273615837,0.0,0.0,0.0,0.0,0.279227286577,0.0,0.0,0.0,10,1,0,20.0,1.0136603117,,,,,,,,,,,,,,,,,,,,-0.000115472961625,0.010963591747,-0.00426835846156,0.0,0,2,0,1.0,0,1,0.0,-0.0,0.0,0.0247524753213,-1.0,0.776942372322,-0.998161792755,0.0,7,0,10.0,10.0,10.0,10.0,0.0,0.0,0.0,0.0,,,,-0.00614959187806,0.0767142623663,-0.0154423611239,-2,-17,-0.0049614100717,-0.0344072580338,0.300000011921,0,77,,,,,,,,,,,,,,,,,,,,,,,,,,,,,,,,,11.8171424866,11.8893508911,-1.0,-1.0,,,,,,,,,,,,,,,,,,,,,,,,,,,,,,,,,,,,,,,,,,,,,,,,,,,,,,,,,,,,,,,,,,,,,,,,,,,,,,,,,,,,,,,,,,,,,,,,,,,,,,,6828087,PX4FMU_V1,251760679a4bed86fdb10746062fde2cc23e460f,test,305419904.0
0.00104769924656,-0.0153834177181,-2.09644818306,0.0100783538073,0.00643179798499,-0.0161473248154,0.0669953078032,-0.0319660902023,-9.5873003006,0.0,0.0,-2.11307263374,0.0,0.0669953078032,-0.0319660902023,-9.5873003006,0.0226408280432,0.0122277922928,-0.0251169241965,-0.0598451644182,0.163487836719,0.420007348061,1019.92999268,-55.457359314,26.6800003052,0.0,0.0,0.0,0.0,0.37475425005,0.0,0.0,0.0,0.0,0.281418502331,0.0,0.0,0.0,10,1,0,20.0,1.01377916336,,,,,,,,,,,,,,,,,,,,-0.00199113669805,0.00916309002787,-7.2778952017e-05,0.0,0,2,0,1.0,0,1,0.0,-0.0,0.0,0.0247524753213,-0.99816006422,0.776942372322,-0.998161792755,0.0,7,0,10.0,10.0,10.0,10.0,0.0,0.0,0.0,0.0,,,,-0.00523808179423,0.076917104423,-0.0166325177997,0,0,0.0,0.0,0.300000011921,0,77,,,,,,,,,,,,,,,,,,,,,,,,,,,,,,,,,11.8255233765,11.8892145157,-1.0,-1.0,,,,,,,,,,,,,,,,,,,,,,,,,,,,,,,,,,,,,,,,,,,,,,,,,,,,,,,,,,,,,,,,,,,,,,,,,,,,,,,,,,,,,,,,,,,,,,,,,,,,,,,6850499,PX4FMU_V1,251760679a4bed86fdb10746062fde2cc23e460f,test,305419904.0
0.0012364302529,-0.0153340548277,-2.09976148605,-0.00575982825831,-0.00743632670492,0.0129602849483,-0.0454022288322,-0.188435509801,-9.74424743652,0.0,0.0,-2.11307263374,0.0,-0.0454022288322,-0.188435509801,-9.74424743652,-0.0190795902163,-0.0186581611633,0.0217795465142,-0.0864492058754,0.114385969937,0.443150103092,1019.94995117,-55.622959137,26.6700000763,0.0,0.0,0.0,0.0,0.377846568823,0.0,0.0,0.0,0.0,0.283154308796,0.0,0.0,0.0,10,1,0,20.0,1.01389956474,,,,,,,,,,,,,,,,,,,,-5.48393509234e-05,0.0109338611364,-0.00394212454557,0.0,0,2,0,1.0,0,1,0.0,-0.0,0.0,0.0247524753213,-1.0,0.776942372322,-0.998161792755,0.0,7,0,10.0,10.0,10.0,10.0,0.0,0.0,0.0,0.0,,,,-0.00618166942149,0.0766702964902,-0.0133205419406,4,24,0.0105790570378,0.0587710142136,0.300000011921,0,77,,,,,,,,,,,,,,,,,,,,,,,,,,,,,,,,,11.8171424866,11.8891420364,-1.0,-1.0,,,,,,,,,,,,,,,,,,,,,,,,,,,,,,,,,,,,,,,,,,,,,,,,,,,,,,,,,,,,,,,,,,,,,,,,,,,,,,,,,,,,,,,,,,,,,,,,,,,,,,,6871194,PX4FMU_V1,251760679a4bed86fdb10746062fde2cc23e460f,test,305419904.0
0.000960748933721,-0.0154908187687,-2.09591770172,-0.0029362286441,0.0014495679643,-0.00472203688696,-0.021539632231,0.280506879091,-9.71628665924,0.0,0.0,-2.11307263374,0.0,-0.021539632231,0.280506879091,-9.71628665924,0.0105549981818,0.0121159823611,-0.0205728989094,-0.0460844524205,0.13685631752,0.420007348061,1019.92999268,-55.457359314,26.6700000763,0.0,0.0,0.0,0.0,0.381898164749,0.0,0.0,0.0,0.0,0.283663034439,0.0,0.0,0.0,10,1,0,20.0,1.01401937008,,,,,,,,,,,,,,,,,,,,-0.000242726586293,0.00988058745861,-0.00186605786439,0.0,0,2,0,1.0,0,1,0.0,-0.0,0.0,0.0247524753213,-1.0,0.776942372322,-0.998161792755,0.0,7,0,10.0,10.0,10.0,10.0,0.0,0.0,0.0,0.0,,,,-0.00480335624889,0.0774540901184,-0.0171624217182,0,0,0.0,0.0,0.300000011921,0,77,,,,,,,,,,,,,,,,,,,,,,,,,,,,,,,,,11.8171424866,11.8890066147,-1.0,-1.0,,,,,,,,,,,,,,,,,,,,,,,,,,,,,,,,,,,,,,,,,,,,,,,,,,,,,,,,,,,,,,,,,,,,,,,,,,,,,,,,,,,,,,,,,,,,,,,,,,,,,,,6892551,PX4FMU_V1,251760679a4bed86fdb10746062fde2cc23e460f,test,305419904.0
0.00122182280757,-0.0153379617259,-2.09470438957,-0.00205484870821,-0.00388234504499,0.0130248125643,-0.044070482254,-0.232989281416,-9.74733924866,0.0,0.0,-2.11307263374,0.0,-0.044070482254,-0.232989281416,-9.74733924866,-0.0180723816156,-0.0137526635081,0.0289633255452,-0.0387454144657,0.152668789029,0.417337030172,1019.88995361,-55.1261558533,26.6700000763,0.0,0.0,0.0,0.0,0.381601691246,0.0,0.0,0.0,0.0,0.282621175051,0.0,0.0,0.0,10,1,0,20.0,1.01413929462,,,,,,,,,,,,,,,,,,,,-0.000526992429513,0.0104743810371,-0.00471037812531,0.0,0,2,0,1.0,0,1,0.0,-0.0,0.0,0.0247524753213,-1.0,0.776942372322,-0.998161792755,0.0,7,0,10.0,10.0,10.0,10.0,0.0,0.0,0.0,0.0,,,,-0.00610863696784,0.0766898170114,-0.0183777082711,0,0,0.0,0.0,0.300000011921,0,77,,,,,,,,,,,,,,,,,,,,,,,,,,,,,,,,,11.8171424866,11.8888711929,-1.0,-1.0,,,,,,,,,,,,,,,,,,,,,,,,,,,,,,,,,,,,,,,,,,,,,,,,,,,,,,,,,,,,,,,,,,,,,,,,,,,,,,,,,,,,,,,,,,,,,,,,,,,,,,,6914379,PX4FMU_V1,251760679a4bed86fdb10746062fde2cc23e460f,test,305419904.0
0.000945295148995,-0.0154850305989,-2.09747624397,-0.00179890042637,0.00116368348245,-0.00956339202821,-0.0668565109372,0.272173166275,-9.74866771698,0.0,0.0,-2.11307263374,0.0,-0.0668565109372,0.272173166275,-9.74866771698,0.0153264552355,0.0110047925264,-0.0340190678835,-0.0910360962152,0.0969090461731,0.445820450783,1019.9699707,-55.7885551453,26.6800003052,0.0,0.0,0.0,0.0,0.383794516325,0.0,0.0,0.0,0.0,0.283585339785,0.0,0.0,0.0,10,1,0,20.0,1.01419985294,,,,,,,,,,,,,,,,,,,,-0.000380535930162,0.00991399306804,-0.000906045606826,0.0,0,2,0,1.0,0,1,0.0,-0.0,0.0,0.0247524753213,-1.0,0.776942372322,-0.998161792755,0.0,7,0,10.0,10.0,10.0,10.0,0.0,0.0,0.0,0.0,,,,-0.00472609978169,0.0774251744151,-0.0156036959961,0,0,0.0,0.0,0.300000011921,0,77,,,,,,,,,,,,,,,,,,,,,,,,,,,,,,,,,11.8255233765,11.8887367249,-1.0,-1.0,,,,,,,,,,,,,,,,,,,,,,,,,,,,,,,,,,,,,,,,,,,,,,,,,,,,,,,,,,,,,,,,,,,,,,,,,,,,,,,,,,,,,,,,,,,,,,,,,,,,,,,6935968,PX4FMU_V1,251760679a4bed86fdb10746062fde2cc23e460f,test,305419904.0
0.00125586846843,-0.0153003940359,-2.09834003448,0.00663522444665,0.00240807863884,0.00740361120552,-0.0225798208266,-0.321271151304,-9.70778274536,0.0,0.0,-2.11307263374,0.0,-0.0225798208266,-0.321271151304,-9.70778274536,-0.00587120791897,-0.00686399219558,0.0239019133151,-0.0589277818799,0.117714904249,0.432468831539,1019.92999268,-55.457359314,26.6800003052,0.0,0.0,0.0,0.0,0.389145106077,0.0,0.0,0.0,0.0,0.286159485579,0.0,0.0,0.0,10,1,0,20.0,1.01432061195,,,,,,,,,,,,,,,,,,,,-0.00167882966343,0.00963220559061,-0.00332186184824,0.0,0,2,0,1.0,0,1,0.0,-0.0,0.0,0.0247524753213,-1.0,0.776942372322,-0.998161792755,0.0,7,0,10.0,10.0,10.0,10.0,0.0,0.0,0.0,0.0,,,,-0.00627885060385,0.0765019729733,-0.0147421332076,3,12,0.00724705681205,0.0289832707494,0.300000011921,0,77,,,,,,,,,,,,,,,,,,,,,,,,,,,,,,,,,11.8255233765,11.8886737823,-1.0,-1.0,,,,,,,,,,,,,,,,,,,,,,,,,,,,,,,,,,,,,,,,,,,,,,,,,,,,,,,,,,,,,,,,,,,,,,,,,,,,,,,,,,,,,,,,,,,,,,,,,,,,,,,6956946,PX4FMU_V1,251760679a4bed86fdb10746062fde2cc23e460f,test,305419904.0
0.000934485753532,-0.015541930683,-2.09972214699,-0.00691300397739,-0.00282639847137,-0.00256822258234,-0.188228175044,0.297054857016,-9.78242778778,0.0,0.0,-2.11307263374,0.0,-0.188228175044,0.297054857016,-9.78242778778,0.00793400686234,0.0087678860873,-0.0192794278264,-0.0846144407988,0.101902455091,0.442259997129,1019.98999023,-55.9541473389,26.6800003052,0.0,0.0,0.0,0.0,0.392147064209,0.0,0.0,0.0,0.0,0.285893619061,0.0,0.0,0.0,10,1,0,20.0,1.01444017887,,,,,,,,,,,,,,,,,,,,0.00029132340569,0.0104696871713,-0.00161842303351,0.0,0,2,0,1.0,0,1,0.0,-0.0,0.0,0.0247524753213,-1.0,0.776942372322,-0.998161792755,0.0,7,0,10.0,10.0,10.0,10.0,0.0,0.0,0.0,0.0,,,,-0.00467205466703,0.077709659934,-0.0133577091619,-8,-3,-0.0193726364523,-0.00896284729242,0.300000011921,0,77,,,,,,,,,,,,,,,,,,,,,,,,,,,,,,,,,11.8255233765,11.8885393143,-1.0,-1.0,,,,,,,,,,,,,,,,,,,,,,,,,,,,,,,,,,,,,,,,,,,,,,,,,,,,,,,,,,,,,,,,,,,,,,,,,,,,,,,,,,,,,,,,,,,,,,,,,,,,,,,6978633,PX4FMU_V1,251760679a4bed86fdb10746062fde2cc23e460f,test,305419904.0
0.00123828602955,-0.0153143657371,-2.10036563873,0.0109440982342,0.00512328464538,-0.000949502922595,0.0108054112643,-0.393523365259,-9.73025417328,0.0,0.0,-2.11307263374,0.0,0.0108054112643,-0.393523365259,-9.73025417328,0.00080380612053,-0.00363277434371,0.0159682445228,-0.0836970582604,0.141849726439,0.427128195763,1019.95996094,-55.7057571411,26.6800003052,0.0,0.0,0.0,0.0,0.39958819747,0.0,0.0,0.0,0.0,0.28922149539,0.0,0.0,0.0,10,1,0,20.0,1.01456022263,,,,,,,,,,,,,,,,,,,,-0.00222755596042,0.00928831193596,-0.00176503427792,0.0,0,2,0,1.0,0,1,0.0,-0.0,0.0,0.0247524753213,-1.0,0.776942372322,-0.998161792755,0.0,7,0,10.0,10.0,10.0,10.0,0.0,0.0,0.0,0.0,,,,-0.00619094911963,0.0765718445182,-0.0127163976431,0,0,0.0,0.0,0.300000011921,0,77,,,,,,,,,,,,,,,,,,,,,,,,,,,,,,,,,11.8171424866,11.8883962631,-1.0,-1.0,,,,,,,,,,,,,,,,,,,,,,,,,,,,,,,,,,,,,,,,,,,,,,,,,,,,,,,,,,,,,,,,,,,,,,,,,,,,,,,,,,,,,,,,,,,,,,,,,,,,,,,6999309,PX4FMU_V1,251760679a4bed86fdb10746062fde2cc23e460f,test,305419904.0
0.000946206157096,-0.0155695974827,-2.10012602806,-0.0173627361655,-0.0109456200153,0.010093735531,-0.457386374474,0.297500222921,-9.83578681946,0.0,0.0,-2.11307263374,0.0,-0.457386374474,0.297500222921,-9.83578681946,-0.00930643919855,-0.0027401028201,-0.00449295109138,-0.0836970582604,0.153501003981,0.420007348061,1019.94000244,-55.5401611328,26.6800003052,0.0,0.0,0.0,0.0,0.40156391263,0.0,0.0,0.0,0.0,0.290101110935,0.0,0.0,0.0,10,1,0,20.0,1.01462030411,,,,,,,,,,,,,,,,,,,,0.00164217117708,0.011543170549,-0.00345713784918,0.0,0,2,0,1.0,0,1,0.0,-0.0,0.0,0.0272277221084,-1.0,0.776942372322,-0.998161792755,0.0,7,0,10.0,10.0,10.0,10.0,0.0,0.0,0.0,0.0,,,,-0.00473064929247,0.0778480023146,-0.0129538504407,0,-11,-0.00067016587127,-0.0276791602373,0.300000011921,43,77,,,,,,,,,,,,,,,,,,,,,,,,,,,,,,,,,11.8087615967,11.8882455826,-1.0,-1.0,,,,,,,,,,,,,,,,,,,,,,,,,,,,,,,,,,,,,,,,,,,,,,,,,,,,,,,,,,,,,,,,,,,,,,,,,,,,,,,,,,,,,,,,,,,,,,,,,,,,,,,7020554,PX4FMU_V1,251760679a4bed86fdb10746062fde2cc23e460f,test,305419904.0
0.00123475480359,-0.0153276268393,-2.10000681877,0.0125632705167,0.00839758384973,-0.00362583622336,0.00675449054688,-0.380191653967,-9.66670322418,0.0,0.0,-2.11307263374,0.0,0.00675449054688,-0.380191653967,-9.66670322418,0.00354951154441,0.00192573841196,0.0117620499805,-0.0827796682715,0.131862893701,0.425347983837,1019.94995117,-55.622959137,26.6800003052,0.0,0.0,0.0,0.0,0.406488746405,0.0,0.0,0.0,0.0,0.291234523058,0.0,0.0,0.0,10,1,0,20.0,1.0147408247,,,,,,,,,,,,,,,,,,,,-0.00243575288914,0.00887127500027,-0.00141740730032,0.0,0,2,0,1.0,0,1,0.0,-0.0,0.0,0.0272277221084,-1.0,0.776942372322,-0.998161792755,0.0,7,0,10.0,10.0,10.0,10.0,0.0,0.0,0.0,0.0,,,,-0.00617329124361,0.0766381695867,-0.0130752176046,0,0,0.0,0.0,0.300000011921,0,77,,,,,,,,,,,,,,,,,,,,,,,,,,,,,,,,,11.8171424866,11.8881120682,-1.0,-1.0,,,,,,,,,,,,,,,,,,,,,,,,,,,,,,,,,,,,,,,,,,,,,,,,,,,,,,,,,,,,,,,,,,,,,,,,,,,,,,,,,,,,,,,,,,,,,,,,,,,,,,,7042640,PX4FMU_V1,251760679a4bed86fdb10746062fde2cc23e460f,test,305419904.0
0.000970586319454,-0.0155809633434,-2.09948205948,-0.018237080425,-0.0136495735496,0.0117979291826,-0.509706616402,0.243389561772,-9.69688034058,0.0,0.0,-2.11307263374,0.0,-0.509706616402,0.243389561772,-9.69688034058,-0.0141833657399,-0.00775144156069,-0.000308890943415,-0.0635146871209,0.122708320618,0.429798513651,1019.91998291,-55.3745613098,26.6800003052,0.0,0.0,0.0,0.0,0.41076156497,0.0,0.0,0.0,0.0,0.293121486902,0.0,0.0,0.0,10,1,0,20.0,1.01486074924,,,,,,,,,,,,,,,,,,,,0.00173998973332,0.0119020715356,-0.00380940642208,0.0,0,2,0,1.0,0,1,0.0,-0.0,0.0,0.0247524753213,-1.0,0.776942372322,-0.998161792755,0.0,7,0,10.0,10.0,10.0,10.0,0.0,0.0,0.0,0.0,,,,-0.004852543585,0.0779048278928,-0.0135981133208,10,20,0.023932473734,0.0489034093916,0.300000011921,75,77,,,,,,,,,,,,,,,,,,,,,,,,,,,,,,,,,11.8087615967,11.8880329132,-1.0,-1.0,,,,,,,,,,,,,,,,,,,,,,,,,,,,,,,,,,,,,,,,,,,,,,,,,,,,,,,,,,,,,,,,,,,,,,,,,,,,,,,,,,,,,,,,,,,,,,,,,,,,,,,7063822,PX4FMU_V1,251760679a4bed86fdb10746062fde2cc23e460f,test,305419904.0
0.00112661486492,-0.0153783233836,-2.09976911545,0.0180124603212,0.0119177093729,-0.0124024152756,-0.0030092142988,-0.286169588566,-9.65568161011,0.0,0.0,-2.11307263374,0.0,-0.0030092142988,-0.286169588566,-9.65568161011,0.0203689280897,0.0103528946638,-0.0038232379593,-0.0387454144657,0.102734684944,0.428018301725,1019.92999268,-55.457359314,26.6800003052,0.0,0.0,0.0,0.0,0.413010746241,0.0,0.0,0.0,0.0,0.293033957481,0.0,0.0,0.0,10,1,0,20.0,1.01498103142,,,,,,,,,,,,,,,,,,,,-0.00307386158966,0.00844660867006,-0.000136480579386,0.0,0,2,0,1.0,0,1,0.0,-0.0,0.0,0.0247524753213,-0.99816006422,0.776942372322,-0.998161792755,0.0,7,0,10.0,10.0,10.0,10.0,0.0,0.0,0.0,0.0,,,,-0.00563262915239,0.0768916234374,-0.013312285766,0,0,0.0,0.0,0.300000011921,0,77,,,,,,,,,,,,,,,,,,,,,,,,,,,,,,,,,11.8255233765,11.8879003525,-1.0,-1.0,,,,,,,,,,,,,,,,,,,,,,,,,,,,,,,,,,,,,,,,,,,,,,,,,,,,,,,,,,,,,,,,,,,,,,,,,,,,,,,,,,,,,,,,,,,,,,,,,,,,,,,7085159,PX4FMU_V1,251760679a4bed86fdb10746062fde2cc23e460f,test,305419904.0
0.000943179009482,-0.0155451428145,-2.09944033623,-0.0199977867305,-0.0138923889026,0.0172837059945,-0.452709168196,0.31931501627,-9.83852767944,0.0,0.0,-2.11307263374,0.0,-0.452709168196,0.31931501627,-9.83852767944,-0.0181955769658,-0.0117422211915,0.0119165349752,-0.0525061264634,0.125205025077,0.428018301725,1019.94995117,-55.622959137,26.6800003052,0.0,0.0,0.0,0.0,0.416258096695,0.0,0.0,0.0,0.0,0.293681383133,0.0,0.0,0.0,10,1,0,20.0,1.0151014328,,,,,,,,,,,,,,,,,,,,0.00198669522069,0.011910350062,-0.00463850144297,0.0,0,2,0,1.0,0,1,0.0,-0.0,0.0,0.0247524753213,-0.99816006422,0.776942372322,-0.998161792755,0.0,7,0,10.0,10.0,10.0,10.0,0.0,0.0,0.0,0.0,,,,-0.00471551530063,0.0777256935835,-0.0136396344751,-3,-7,-0.00319242477417,-0.00166449323297,0.300000011921,51,77,,,,,,,,,,,,,,,,,,,,,,,,,,,,,,,,,11.8171424866,11.8877506256,-1.0,-1.0,,,,,,,,,,,,,,,,,,,,,,,,,,,,,,,,,,,,,,,,,,,,,,,,,,,,,,,,,,,,,,,,,,,,,,,,,,,,,,,,,,,,,,,,,,,,,,,,,,,,,,,7107409,PX4FMU_V1,251760679a4bed86fdb10746062fde2cc23e460f,test,305419904.0
0.00108067807741,-0.0153807578608,-2.10046124458,0.0173404105008,0.0131701286882,-0.0168332308531,-0.0103273550048,-0.170734241605,-9.69184303284,0.0,0.0,-2.11307263374,0.0,-0.0103273550048,-0.170734241605,-9.69184303284,0.0208722632378,0.0161656793207,-0.0109204128385,-0.0836970582604,0.129366204143,0.434249043465,1019.94995117,-55.622959137,26.6800003052,0.0,0.0,0.0,0.0,0.418698817492,0.0,0.0,0.0,0.0,0.294393092394,0.0,0.0,0.0,10,1,0,20.0,1.0151617527,,,,,,,,,,,,,,,,,,,,-0.00295663950965,0.00828537624329,0.000632032519206,0.0,0,2,0,1.0,0,1,0.0,-0.0,0.0,0.0272277221084,-1.0,0.776942372322,-0.998161792755,0.0,7,0,10.0,10.0,10.0,10.0,0.0,0.0,0.0,0.0,,,,-0.00540297012776,0.0769037976861,-0.012619680725,0,0,0.0,0.0,0.300000011921,0,77,,,,,,,,,,,,,,,,,,,,,,,,,,,,,,,,,11.8171424866,11.8876180649,-1.0,-1.0,,,,,,,,,,,,,,,,,,,,,,,,,,,,,,,,,,,,,,,,,,,,,,,,,,,,,,,,,,,,,,,,,,,,,,,,,,,,,,,,,,,,,,,,,,,,,,,,,,,,,,,7128538,PX4FMU_V1,251760679a4bed86fdb10746062fde2cc23e460f,test,305419904.0
0.000991192995571,-0.015539644286,-2.10127711296,-0.0213237795979,-0.0169049277902,0.0172039140016,-0.496300876141,0.249228671193,-9.7053194046,0.0,0.0,-2.11307263374,0.0,-0.496300876141,0.249228671193,-9.7053194046,-0.0266809798777,-0.017684372142,0.010510741733,-0.11305321753,0.144346430898,0.420897454023,1019.95996094,-55.7057571411,26.6899986267,0.0,0.0,0.0,0.0,0.42453455925,0.0,0.0,0.0,0.0,0.297149330378,0.0,0.0,0.0,10,1,0,20.0,1.01528120041,,,,,,,,,,,,,,,,,,,,0.00212786742486,0.0122984088957,-0.00435106502846,0.0,0,2,0,1.0,0,1,0.0,-0.0,0.0,0.0272277221084,-1.0,0.776942372322,-0.998161792755,0.0,7,0,10.0,10.0,10.0,10.0,0.0,0.0,0.0,0.0,,,,-0.00495556741953,0.0776982232928,-0.0118031846359,0,0,0.0,0.0,0.300000011921,0,77,,,,,,,,,,,,,,,,,,,,,,,,,,,,,,,,,11.8171424866,11.8874855042,-1.0,-1.0,,,,,,,,,,,,,,,,,,,,,,,,,,,,,,,,,,,,,,,,,,,,,,,,,,,,,,,,,,,,,,,,,,,,,,,,,,,,,,,,,,,,,,,,,,,,,,,,,,,,,,,7150937,PX4FMU_V1,251760679a4bed86fdb10746062fde2cc23e460f,test,305419904.0
0.00107694230974,-0.0154185881838,-2.09766221046,0.0200962014496,0.0135754887015,-0.0157259441912,0.0550023764372,-0.210066735744,-9.61926364899,0.0,0.0,-2.11307263374,0.0,0.0550023764372,-0.210066735744,-9.61926364899,0.0293286517262,0.0194661542773,-0.0128909368068,-0.0635146871209,0.143514186144,0.420007348061,1019.94000244,-55.5401611328,26.6899986267,0.0,0.0,0.0,0.0,0.429715007544,0.0,0.0,0.0,0.0,0.298687696457,0.0,0.0,0.0,10,1,0,20.0,1.01540148258,,,,,,,,,,,,,,,,,,,,-0.00331246317364,0.00825726985931,4.60651244794e-05,0.0,0,2,0,1.0,0,1,0.0,-0.0,0.0,0.0272277221084,-1.0,0.776942372322,-0.998161792755,0.0,7,0,10.0,10.0,10.0,10.0,0.0,0.0,0.0,0.0,,,,-0.00538428546861,0.0770929530263,-0.0154188433662,-11,-16,-0.0270271860063,-0.0395681932569,0.300000011921,0,77,,,,,,,,,,,,,,,,,,,,,,,,,,,,,,,,,11.8255233765,11.8874235153,-1.0,-1.0,,,,,,,,,,,,,,,,,,,,,,,,,,,,,,,,,,,,,,,,,,,,,,,,,,,,,,,,,,,,,,,,,,,,,,,,,,,,,,,,,,,,,,,,,,,,,,,,,,,,,,,7171748,PX4FMU_V1,251760679a4bed86fdb10746062fde2cc23e460f,test,305419904.0
0.00114841607865,-0.0153964478523,-2.09782314301,-0.0173140279949,-0.0153634380549,0.0149695416912,-0.0713662281632,-0.121123917401,-9.66916751862,0.0,0.0,-2.11307263374,0.00126903550699,-0.0713662281632,-0.121123917401,-9.66916751862,-0.0346418358386,-0.0275247916579,0.0199708417058,-0.061679918319,0.112721502781,0.445820450783,1019.9699707,-55.7885551453,26.6800003052,0.0,0.0,0.0,0.0,0.434547960758,0.0,0.0,0.0,0.0,0.300992488861,0.0,0.0,0.0,10,1,0,20.0,1.01552200317,,,,,,,,,,,,,,,,,,,,0.00150441227015,0.0120049426332,-0.00453415559605,0.00126903550699,0,2,0,1.0,0,1,0.0,-0.0,0.00126903550699,0.0371287129819,-1.0,0.776942372322,-0.998161792755,0.0,7,0,10.0,10.0,10.0,10.0,0.0,0.0,0.0,0.0,,,,-0.00574162509292,0.0769822746515,-0.0152581594884,0,0,0.0,0.0,0.300000011921,0,77,,,,,,,,,,,,,,,,,,,,,,,,,,,,,,,,,11.8087615967,11.8872747421,-1.0,-1.0,,,,,,,,,,,,,,,,,,,,,,,,,,,,,,,,,,,,,,,,,,,,,,,,,,,,,,,,,,,,,,,,,,,,,,,,,,,,,,,,,,,,,,,,,,,,,,,,,,,,,,,7193142,PX4FMU_V1,251760679a4bed86fdb10746062fde2cc23e460f,test,305419904.0
0.00102276401594,-0.015426075086,-2.09827423096,0.0189239680767,0.0150036467239,-0.0186121296138,0.120727211237,-0.135454565287,-9.63342094421,0.0,0.0,-2.11307263374,0.0291878171265,0.120727211237,-0.135454565287,-9.63342094421,0.0319583714008,0.0246016867459,-0.0251990966499,-0.044249702245,0.148507609963,0.428908407688,1019.89996338,-55.2089576721,26.6800003052,0.0,0.0,0.0,0.0,0.438574820757,0.0,0.0,0.0,0.0,0.300958514214,0.0,0.0,0.0,10,1,0,20.0,1.01564204693,,,,,,,,,,,,,,,,,,,,-0.00312485988252,0.00807647313923,0.000570860865992,0.0291878171265,0,2,0,1.0,0,1,0.0,-0.0,0.0291878171265,0.0272277221084,-1.0,0.776942372322,-0.998161792755,0.0,7,0,14.0,15.0,14.0,14.0,0.0,0.0,0.0,0.0,,,,-0.0051134172827,0.0771303698421,-0.01480639074,0,0,0.0,0.0,0.300000011921,0,77,,,,,,,,,,,,,,,,,,,,,,,,,,,,,,,,,11.8171424866,11.8871269226,-1.0,-1.0,,,,,,,,,,,,,,,,,,,,,,,,,,,,,,,,,,,,,,,,,,,,,,,,,,,,,,,,,,,,,,,,,,,,,,,,,,,,,,,,,,,,,,,,,,,,,,,,,,,,,,,7215510,PX4FMU_V1,251760679a4bed86fdb10746062fde2cc23e460f,test,305419904.0
0.00118822150398,-0.0153179336339,-2.09975504875,-0.0129832923412,-0.0125911422074,0.0140802618116,-0.0674482882023,-0.118220686913,-9.68075752258,0.0,0.0,-2.11307263374,0.0393401011825,-0.0674482882023,-0.118220686913,-9.68075752258,-0.032661203295,-0.0282285884023,0.0200920868665,-0.106631562114,0.109392568469,0.432468831539,1019.97998047,-55.8713493347,26.6899986267,0.0,0.0,0.0,0.0,0.438471198082,0.0,0.0,0.0,0.0,0.301536440849,0.0,0.0,0.0,10,1,0,20.0,1.01570236683,,,,,,,,,,,,,,,,,,,,0.000915544456802,0.0115935066715,-0.00411103758961,0.0393401011825,0,2,0,1.0,0,1,0.0,-0.0,0.0393401011825,0.0272277221084,-1.0,0.776942372322,-0.998161792755,0.0,7,0,20.0,20.0,19.0,19.0,0.0,0.0,0.0,0.0,,,,-0.00594064220786,0.0765896886587,-0.0133266542107,5,8,-0.0374684333801,-0.0602137669921,0.300000011921,0,77,,,,,,,,,,,,,,,,,,,,,,,,,,,,,,,,,11.7752380371,11.8869037628,-1.0,-1.0,,,,,,,,,,,,,,,,,,,,,,,,,,,,,,,,,,,,,,,,,,,,,,,,,,,,,,,,,,,,,,,,,,,,,,,,,,,,,,,,,,,,,,,,,,,,,,,,,,,,,,,7236225,PX4FMU_V1,251760679a4bed86fdb10746062fde2cc23e460f,test,305419904.0
0.000865017005708,-0.0155579755083,-2.10177302361,0.00374859245494,0.00367833510973,-0.0113745424896,-0.0829968750477,0.284585207701,-9.66900920868,0.0,0.0,-2.11307263374,0.0469543151557,-0.0829968750477,0.284585207701,-9.66900920868,0.0275290887803,0.0218408331275,-0.0354404374957,-0.0947056040168,0.105231389403,0.434249043465,1019.94995117,-55.622959137,26.6899986267,0.0,0.0,0.0,0.0,0.444419771433,0.0,0.0,0.0,0.0,0.302650332451,0.0,0.0,0.0,10,1,0,20.0,1.01582348347,,,,,,,,,,,,,,,,,,,,-0.00104953278787,0.00963450036943,1.02157246147e-05,0.0469543151557,0,2,0,1.0,0,1,0.0,-0.0,0.0469543151557,0.0272277221084,-1.0,0.776942372322,-0.998161792755,0.0,7,0,24.0,24.0,23.0,23.0,0.0,0.0,0.0,0.0,,,,-0.00432473653927,0.0777898803353,-0.0113064376637,0,0,0.0,0.0,0.300000011921,0,77,,,,,,,,,,,,,,,,,,,,,,,,,,,,,,,,,11.7668571472,11.8866548538,-1.0,-1.0,,,,,,,,,,,,,,,,,,,,,,,,,,,,,,,,,,,,,,,,,,,,,,,,,,,,,,,,,,,,,,,,,,,,,,,,,,,,,,,,,,,,,,,,,,,,,,,,,,,,,,,7257651,PX4FMU_V1,251760679a4bed86fdb10746062fde2cc23e460f,test,305419904.0
0.00122407067101,-0.0153142390773,-2.10113835335,-0.00952559150755,-0.010173836723,0.0202895402908,-0.0718462765217,-0.221121072769,-9.70616340637,0.0,0.0,-2.11307263374,0.0507614202797,-0.0718462765217,-0.221121072769,-9.70616340637,-0.0333787202835,-0.0273511335254,0.0349844656885,-0.0800275206566,0.110224798322,0.43602925539,1019.91998291,-55.3745613098,26.6899986267,0.0,0.0,0.0,0.0,0.447144806385,0.0,0.0,0.0,0.0,0.303688079119,0.0,0.0,0.0,10,1,0,20.0,1.01594400406,,,,,,,,,,,,,,,,,,,,0.000442743330495,0.0112768579274,-0.00483497930691,0.0507614202797,0,2,0,1.0,0,1,0.0,-0.0,0.0507614202797,0.0272277221084,-1.0,0.776942372322,-0.998161792755,0.0,7,0,26.0,26.0,25.0,24.0,0.0,0.0,0.0,0.0,,,,-0.0061198733747,0.07657122612,-0.0119436532259,0,0,0.0,0.0,0.300000011921,0,77,,,,,,,,,,,,,,,,,,,,,,,,,,,,,,,,,11.783618927,11.886551857,-1.0,-1.0,,,,,,,,,,,,,,,,,,,,,,,,,,,,,,,,,,,,,,,,,,,,,,,,,,,,,,,,,,,,,,,,,,,,,,,,,,,,,,,,,,,,,,,,,,,,,,,,,,,,,,,7279592,PX4FMU_V1,251760679a4bed86fdb10746062fde2cc23e460f,test,305419904.0
0.000847903778777,-0.0155642442405,-2.09891057014,0.00506867514923,0.00383803155273,-0.0186566337943,-0.164701670408,0.289111763239,-9.67578315735,0.0,0.0,-2.11307263374,0.0507614202797,-0.164701670408,0.289111763239,-9.67578315735,0.0349083803594,0.0249106287956,-0.04026106745,-0.039662797004,0.126869499683,0.433358937502,1019.94995117,-55.622959137,26.6999988556,0.0,0.0,0.0,0.0,0.450855761766,0.0,0.0,0.0,0.0,0.303584188223,0.0,0.0,0.0,10,1,0,20.0,1.01606357098,,,,,,,,,,,,,,,,,,,,-0.0012100210879,0.00961781758815,0.000673189060763,0.0507614202797,0,2,0,1.0,0,1,0.0,-0.0,0.0507614202797,0.0272277221084,-1.0,0.776942372322,-0.998161792755,0.0,7,0,26.0,26.0,25.0,25.0,0.0,0.0,0.0,0.0,,,,-0.00423917965963,0.0778212472796,-0.0141687067226,0,0,0.0,0.0,0.300000011921,0,77,,,,,,,,,,,,,,,,,,,,,,,,,,,,,,,,,11.783618927,11.8863544464,-1.0,-1.0,,,,,,,,,,,,,,,,,,,,,,,,,,,,,,,,,,,,,,,,,,,,,,,,,,,,,,,,,,,,,,,,,,,,,,,,,,,,,,,,,,,,,,,,,,,,,,,,,,,,,,,7300893,PX4FMU_V1,251760679a4bed86fdb10746062fde2cc23e460f,test,305419904.0
0.00121877307538,-0.0153156137094,-2.10058784485,-0.0132078854367,-0.0107308048755,0.0248735826463,-0.050382681191,-0.0123965553939,-9.60066699982,0.0,0.0,-2.11307263374,0.062182739377,-0.050382681191,-0.0123965553939,-9.60066699982,-0.0414255000651,-0.0296049397439,0.0361993163824,-0.0589277818799,0.12603725493,0.424457877874,1019.95996094,-55.7057571411,26.6999988556,0.0,0.0,0.0,0.0,0.457205057144,0.0,0.0,0.0,0.0,0.306971043348,0.0,0.0,0.0,10,1,0,20.0,1.01618361473,,,,,,,,,,,,,,,,,,,,0.000924884108827,0.0113501567394,-0.00560514163226,0.062182739377,0,2,0,1.0,0,1,0.0,-0.0,0.062182739377,0.0247524753213,-1.0,0.776942372322,-0.998161792755,0.0,7,0,32.0,32.0,31.0,30.0,0.0,0.0,0.0,0.0,,,,-0.00609339214861,0.0765780955553,-0.0124940257519,0,0,0.0,0.0,0.300000011921,0,77,,,,,,,,,,,,,,,,,,,,,,,,,,,,,,,,,11.7417144775,11.8861236572,-1.0,-1.0,,,,,,,,,,,,,,,,,,,,,,,,,,,,,,,,,,,,,,,,,,,,,,,,,,,,,,,,,,,,,,,,,,,,,,,,,,,,,,,,,,,,,,,,,,,,,,,,,,,,,,,7323441,PX4FMU_V1,251760679a4bed86fdb10746062fde2cc23e460f,test,305419904.0
0.00094065774465,-0.0155585408211,-2.10111927986,0.0107223782688,0.00485900975764,-0.0305096320808,-0.280022829771,0.0862628296018,-9.75411510468,0.0,0.0,-2.11307263374,0.0647208094597,-0.280022829771,0.0862628296018,-9.75411510468,0.036223795265,0.024092765525,-0.0421737059951,-0.0653494372964,0.12603725493,0.428018301725,1019.94995117,-55.622959137,26.6899986267,0.0,0.0,0.0,0.0,0.460054963827,0.0,0.0,0.0,0.0,0.306684851646,0.0,0.0,0.0,10,1,0,20.0,1.01624381542,,,,,,,,,,,,,,,,,,,,-0.00200528721325,0.00948138255626,0.00278235273436,0.0647208094597,0,2,0,1.0,0,1,0.0,-0.0,0.0647208094597,0.0247524753213,-1.0,0.776942372322,-0.998161792755,0.0,7,0,33.0,34.0,32.0,32.0,0.0,0.0,0.0,0.0,,,,-0.0047029084526,0.0777927190065,-0.0119606135413,0,0,0.0,0.0,0.300000011921,0,77,,,,,,,,,,,,,,,,,,,,,,,,,,,,,,,,,11.783618927,11.8858938217,-1.0,-1.0,,,,,,,,,,,,,,,,,,,,,,,,,,,,,,,,,,,,,,,,,,,,,,,,,,,,,,,,,,,,,,,,,,,,,,,,,,,,,,,,,,,,,,,,,,,,,,,,,,,,,,,7344133,PX4FMU_V1,251760679a4bed86fdb10746062fde2cc23e460f,test,305419904.0
0.00125287391711,-0.0152982901782,-2.10227179527,-0.00670552486554,-0.00638558156788,0.0288485493511,0.0747963860631,-0.177407279611,-9.61510848999,0.0,0.0,-2.11307263374,0.0647208094597,0.0747963860631,-0.177407279611,-9.61510848999,-0.033189214766,-0.0247722696513,0.0400111079216,-0.0800275206566,0.120211623609,0.434249043465,1019.94000244,-55.5401611328,26.6899986267,0.0,0.0,0.0,0.0,0.464556664228,0.0,0.0,0.0,0.0,0.308159023523,0.0,0.0,0.0,10,1,0,20.0,1.01636445522,,,,,,,,,,,,,,,,,,,,5.74133373448e-05,0.0107740135863,-0.0059488392435,0.0647208094597,0,2,0,1.0,0,1,0.0,-0.0,0.0647208094597,0.0247524753213,-1.0,0.779448628426,-0.998161792755,0.0,7,0,34.0,33.0,33.0,31.0,0.0,0.0,0.0,0.0,,,,-0.00626388378441,0.0764914527535,-0.0108103761449,0,0,0.0,0.0,0.300000011921,0,77,,,,,,,,,,,,,,,,,,,,,,,,,,,,,,,,,11.7919998169,11.8858003616,-1.0,-1.0,,,,,,,,,,,,,,,,,,,,,,,,,,,,,,,,,,,,,,,,,,,,,,,,,,,,,,,,,,,,,,,,,,,,,,,,,,,,,,,,,,,,,,,,,,,,,,,,,,,,,,,7365367,PX4FMU_V1,251760679a4bed86fdb10746062fde2cc23e460f,test,305419904.0
0.000949729408603,-0.0155600095168,-2.10303378105,0.0156156122684,0.00755931390449,-0.0287912990898,-0.215536370873,-0.0859388187528,-9.68105316162,0.0,0.0,-2.11307263374,0.0647208094597,-0.215536370873,-0.0859388187528,-9.68105316162,0.0388948880136,0.0235840845853,-0.0163702219725,-0.0983751341701,0.106063626707,0.438699603081,1019.88995361,-55.1261558533,26.6899986267,0.0,0.0,0.0,0.0,0.46403798461,0.0,0.0,0.0,0.0,0.306102573872,0.0,0.0,0.0,10,1,0,20.0,1.01648449898,,,,,,,,,,,,,,,,,,,,-0.00264730327763,0.00913129653782,0.00281176459976,0.0647208094597,0,2,0,1.0,0,1,0.0,-0.0,0.0647208094597,0.0272277221084,-1.0,0.776942372322,-0.998161792755,0.0,7,0,33.0,34.0,31.0,32.0,0.0,0.0,0.0,0.0,,,,-0.00474826060236,0.0778000578284,-0.0100462026894,0,0,0.0,0.0,0.300000011921,0,77,,,,,,,,,,,,,,,,,,,,,,,,,,,,,,,,,11.8003807068,11.8856220245,-1.0,-1.0,,,,,,,,,,,,,,,,,,,,,,,,,,,,,,,,,,,,,,,,,,,,,,,,,,,,,,,,,,,,,,,,,,,,,,,,,,,,,,,,,,,,,,,,,,,,,,,,,,,,,,,7387540,PX4FMU_V1,251760679a4bed86fdb10746062fde2cc23e460f,test,305419904.0
0.00118113472126,-0.0154051976278,-2.10102176666,-0.013202695176,-0.0101490421221,0.0272391587496,-0.138867616653,-0.179040148854,-9.68958187103,0.0,0.0,-2.11307263374,0.0672588795424,-0.138867616653,-0.179040148854,-9.68958187103,-0.0377106666565,-0.0253818761557,0.0201588906348,-0.0800275206566,0.121043846011,0.436919361353,1019.94000244,-55.5401611328,26.6999988556,0.0,0.0,0.0,0.0,0.467291295528,0.0,0.0,0.0,0.0,0.307329922915,0.0,0.0,0.0,10,1,0,20.0,1.0166053772,,,,,,,,,,,,,,,,,,,,0.000948673754465,0.0113327540457,-0.00589485745877,0.0672588795424,0,2,0,1.0,0,1,0.0,-0.0,0.0672588795424,0.0272277221084,-1.0,0.776942372322,-0.998161792755,0.0,7,0,35.0,34.0,34.0,32.0,0.0,0.0,0.0,0.0,,,,-0.00590520445257,0.0770259946585,-0.0120598897338,0,0,0.0,0.0,4.35300016403,0,77,,,,,,,,,,,,,,,,,,,,,,,,,,,,,,,,,11.7919998169,11.8854351044,-1.0,-1.0,,,,,,,,,,,,,,,,,,,,,,,,,,,,,,,,,,,,,,,,,,,,,,,,,,,,,,,,,,,,,,,,,,,,,,,,,,,,,,,,,,,,,,,,,,,,,,,,,,,,,,,7408628,PX4FMU_V1,251760679a4bed86fdb10746062fde2cc23e460f,test,305419904.0
0.000950691464823,-0.0155627708882,-2.10362029076,0.01111632213,0.00427215034142,-0.0281555727124,-0.266694188118,-0.0661074817181,-9.72967338562,0.0,0.0,-2.11307263374,0.0786802023649,-0.266694188118,-0.0661074817181,-9.72967338562,0.0334333144128,0.0178322549909,-0.016488917172,-0.0919534787536,0.108560331166,0.442259997129,1019.91998291,-55.3745613098,26.6999988556,0.0,0.0,0.0,0.0,0.468734294176,0.0,0.0,0.0,0.0,0.30754134059,0.0,0.0,0.0,10,1,0,20.0,1.01666533947,,,,,,,,,,,,,,,,,,,,-0.00206302083097,0.00956042297184,0.00280437245965,0.0786802023649,0,2,0,1.0,0,1,0.0,-0.0,0.0786802023649,0.0247524753213,-1.0,0.776942372322,-0.998161792755,0.0,7,0,40.0,41.0,39.0,39.0,0.0,0.0,0.0,0.0,,,,-0.00475306948647,0.0778138637543,-0.00945975538343,0,0,0.0,0.0,4.35300016403,0,77,,,,,,,,,,,,,,,,,,,,,,,,,,,,,,,,,11.7919998169,11.8852481842,-1.0,-1.0,,,,,,,,,,,,,,,,,,,,,,,,,,,,,,,,,,,,,,,,,,,,,,,,,,,,,,,,,,,,,,,,,,,,,,,,,,,,,,,,,,,,,,,,,,,,,,,,,,,,,,,7429825,PX4FMU_V1,251760679a4bed86fdb10746062fde2cc23e460f,test,305419904.0
0.00104914349504,-0.0154701080173,-2.09653520584,-0.017724243924,-0.0111493784934,0.0138079905882,-0.115543439984,0.0780427083373,-9.69551372528,0.0,0.0,-2.11307263374,0.0926395952702,-0.115543439984,0.0780427083373,-9.69551372528,-0.0287171378732,-0.0190758965909,-0.0064136357978,-0.0304889902472,0.153501003981,0.423567771912,1019.97998047,-55.8713493347,26.6999988556,0.0,0.0,0.0,0.0,0.471375465393,0.0,0.0,0.0,0.0,0.307906776667,0.0,0.0,0.0,10,1,0,20.0,1.01678657532,,,,,,,,,,,,,,,,,,,,0.00162226217799,0.0115049891174,-0.00455302977934,0.0926395952702,0,2,0,1.0,0,1,0.0,-0.0,0.0926395952702,0.0247524753213,-1.0,0.776942372322,-0.998161792755,0.0,7,0,49.0,47.0,47.0,45.0,0.0,0.0,0.0,0.0,,,,-0.0052453042008,0.0773505419493,-0.0165455415845,0,0,0.0,0.0,4.35300016403,0,77,,,,,,,,,,,,,,,,,,,,,,,,,,,,,,,,,11.7081899643,11.884926796,-1.0,-1.0,,,,,,,,,,,,,,,,,,,,,,,,,,,,,,,,,,,,,,,,,,,,,,,,,,,,,,,,,,,,,,,,,,,,,,,,,,,,,,,,,,,,,,,,,,,,,,,,,,,,,,,7451629,PX4FMU_V1,251760679a4bed86fdb10746062fde2cc23e460f,test,305419904.0
0.0010343240574,-0.0155543675646,-2.09653520584,0.0119817256927,0.00404440704733,-0.0155856721103,-0.110823452473,-0.147778972983,-9.71080970764,0.0,0.0,-2.11244916916,0.107868023217,-0.110823452473,-0.147778972983,-9.71080970764,0.0199990719557,0.0122230108827,0.0157890357077,-0.0497539751232,0.149339839816,0.419117242098,1019.91998291,-55.3745613098,26.6999988556,0.0,0.0,0.0,0.0,0.476810395718,0.0,0.0,0.0,0.0,0.309408605099,0.0,0.0,0.0,10,1,0,20.0,1.01690530777,,,,,,,,,,,,,,,,,,,,-0.0022298800759,0.00958456750959,0.00111598894,0.107868023217,0,2,0,1.0,0,1,0.0,-0.0,0.107868023217,0.0247524753213,-1.0,0.779448628426,-0.998161792755,0.0,7,0,55.0,57.0,53.0,54.0,0.0,0.0,0.0,0.0,,,,-0.00517119839787,0.0777718499303,-0.00814574584365,0,0,0.0,0.0,4.35300016403,0,77,,,,,,,,,,,,,,,,,,,,,,,,,,,,,,,,,11.7417144775,11.8847837448,-1.0,-1.0,,,,,,,,,,,,,,,,,,,,,,,,,,,,,,,,,,,,,,,,,,,,,,,,,,,,,,,,,,,,,,,,,,,,,,,,,,,,,,,,,,,,,,,,,,,,,,,,,,,,,,,7472261,PX4FMU_V1,251760679a4bed86fdb10746062fde2cc23e460f,test,305419904.0
0.000963305588812,-0.015542796813,-2.09417676926,-0.0135440817103,-0.0060470723547,0.0196188986301,-0.0593675449491,0.183184742928,-9.66364479065,0.0,0.0,-2.11141753197,0.107868023217,-0.0593675449491,0.183184742928,-9.66364479065,-0.0201041642576,-0.00830483902246,-0.0125261582434,-0.0497539751232,0.142681956291,0.421787559986,1019.91998291,-55.3745613098,26.6999988556,0.0,0.0,0.0,0.0,0.478322535753,0.0,0.0,0.0,0.0,0.308781921864,0.0,0.0,0.0,10,1,0,20.0,1.01702558994,,,,,,,,,,,,,,,,,,,,0.0011346321553,0.0108889359981,-0.00436364626512,0.107868023217,0,2,0,1.0,0,1,0.0,-0.0,0.107868023217,0.0247524753213,-1.0,0.779448628426,-0.998161792755,0.0,7,0,57.0,54.0,55.0,52.0,0.0,0.0,0.0,0.0,,,,-0.00481614191085,0.0777139812708,-0.00947207398713,3,5,-0.360870659351,-0.569513261318,4.35300016403,0,77,,,,,,,,,,,,,,,,,,,,,,,,,,,,,,,,,11.7165708542,11.8844480515,-1.0,-1.0,,,,,,,,,,,,,,,,,,,,,,,,,,,,,,,,,,,,,,,,,,,,,,,,,,,,,,,,,,,,,,,,,,,,,,,,,,,,,,,,,,,,,,,,,,,,,,,,,,,,,,,7493583,PX4FMU_V1,251760679a4bed86fdb10746062fde2cc23e460f,test,305419904.0
0.00106983073056,-0.0155687760562,-2.09359073639,0.00568436598405,0.00107311923057,0.0232932977378,-0.00491196289659,-0.147319301963,-9.74506378174,0.0,0.0,-2.11016821861,0.110406093299,-0.00491196289659,-0.147319301963,-9.74506378174,-0.00443796487525,-0.000487153156428,0.0779638811946,-0.0745232477784,0.131862893701,0.435139149427,1019.9699707,-55.7885551453,26.6999988556,0.0,0.0,0.0,0.0,0.485486418009,0.0,0.0,0.0,0.0,0.311293751001,0.0,0.0,0.0,10,1,0,20.0,1.01714634895,,,,,,,,,,,,,,,,,,,,-0.001434301259,0.0099801979959,-0.00481543364003,0.110406093299,0,2,0,1.0,0,1,0.0,-0.0,0.110406093299,0.0247524753213,-1.0,0.776942372322,-0.998161792755,0.0,7,0,57.0,57.0,55.0,54.0,0.0,0.0,0.0,0.0,,,,-0.00534872105345,0.0778438821435,-0.00880959071219,0,0,0.0,0.0,0.300000011921,0,77,,,,,,,,,,,,,,,,,,,,,,,,,,,,,,,,,11.7752380371,11.88422966,-1.0,-1.0,,,,,,,,,,,,,,,,,,,,,,,,,,,,,,,,,,,,,,,,,,,,,,,,,,,,,,,,,,,,,,,,,,,,,,,,,,,,,,,,,,,,,,,,,,,,,,,,,,,,,,,7516161,PX4FMU_V1,251760679a4bed86fdb10746062fde2cc23e460f,test,305419904.0
0.000950138492044,-0.0155706414953,-2.09303689003,-0.000398643984227,-0.00090649840422,-0.0341044031084,-0.0705605000257,0.0870469585061,-9.58424949646,0.0,0.0,-2.10906767845,0.114213198423,-0.0705605000257,0.0870469585061,-9.58424949646,0.0103243067861,-0.00144230131991,-0.0888878852129,-0.0745232477784,0.140185251832,0.428908407688,1019.92999268,-55.457359314,26.6999988556,0.0,0.0,0.0,0.0,0.487376570702,0.0,0.0,0.0,0.0,0.31132465601,0.0,0.0,0.0,10,1,0,20.0,1.01720631123,,,,,,,,,,,,,,,,,,,,-0.000565716938581,0.0102387648076,0.00399301433936,0.114213198423,0,2,0,1.0,0,1,0.0,-0.0,0.114213198423,0.0272277221084,-1.0,0.776942372322,-0.998161792755,0.0,7,0,59.0,59.0,57.0,56.0,0.0,0.0,0.0,0.0,,,,-0.00475031277165,0.0778532326221,-0.00748431030661,11,-9,-0.275299280882,0.244427680969,0.300000011921,63,77,,,,,,,,,,,,,,,,,,,,,,,,,,,,,,,,,11.7584762573,11.8839864731,-1.0,-1.0,,,,,,,,,,,,,,,,,,,,,,,,,,,,,,,,,,,,,,,,,,,,,,,,,,,,,,,,,,,,,,,,,,,,,,,,,,,,,,,,,,,,,,,,,,,,,,,,,,,,,,,7536734,PX4FMU_V1,251760679a4bed86fdb10746062fde2cc23e460f,test,305419904.0
0.000988552928902,-0.0156267043203,-2.09845972061,-0.00765863107517,-0.00439103320241,0.0513983778656,-0.212959617376,0.0700295865536,-9.81224250793,0.0,0.0,-2.10798215866,0.135786801577,-0.212959617376,0.0700295865536,-9.81224250793,-0.0187598392367,-0.00421824865043,0.0975968316197,-0.100209906697,0.11521820724,0.422677665949,1019.94995117,-55.622959137,26.6999988556,0.0,0.0,0.0,0.0,0.490474134684,0.0,0.0,0.0,0.0,0.312190890312,0.0,0.0,0.0,10,1,0,20.0,1.01732623577,,,,,,,,,,,,,,,,,,,,0.000353114504833,0.010728193447,-0.00797286443412,0.135786801577,0,2,0,1.0,0,1,0.0,-0.0,0.135786801577,0.0247524753213,-1.0,0.776942372322,-0.998161792755,0.0,7,0,72.0,68.0,69.0,65.0,0.0,0.0,0.0,0.0,,,,-0.00494236545637,0.0781335383654,-0.0017540496774,0,0,0.0,0.0,0.300000011921,0,77,,,,,,,,,,,,,,,,,,,,,,,,,,,,,,,,,11.7500953674,11.8838529587,-1.0,-1.0,,,,,,,,,,,,,,,,,,,,,,,,,,,,,,,,,,,,,,,,,,,,,,,,,,,,,,,,,,,,,,,,,,,,,,,,,,,,,,,,,,,,,,,,,,,,,,,,,,,,,,,7558084,PX4FMU_V1,251760679a4bed86fdb10746062fde2cc23e460f,test,305419904.0
0.00110240490176,-0.0155894290656,-2.10396003723,0.00982526503503,-0.00125890062191,-0.055948741734,-0.0255687460303,-0.288680136204,-9.67162227631,0.0,0.0,-2.10673713684,0.16624365747,-0.0255687460303,-0.288680136204,-9.67162227631,0.00422069337219,-0.00461503630504,-0.0385715402663,-0.0910360962152,0.117714904249,0.424457877874,1019.92999268,-55.457359314,26.6999988556,0.0,0.0,0.0,0.0,0.493731111288,0.0,0.0,0.0,0.0,0.313396275043,0.0,0.0,0.0,10,1,0,20.0,1.01744651794,,,,,,,,,,,,,,,,,,,,-0.00199379003607,0.0102967880666,0.00914087332785,0.16624365747,0,2,0,1.0,0,1,0.0,-0.0,0.16624365747,0.0247524753213,-1.0,0.776942372322,-0.998161792755,0.0,7,0,83.0,89.0,80.0,85.0,0.0,0.0,0.0,0.0,,,,-0.00551158143207,0.0779471620917,0.00499041564763,0,0,0.0,0.0,0.300000011921,0,77,,,,,,,,,,,,,,,,,,,,,,,,,,,,,,,,,11.6914281845,11.8834257126,-1.0,-1.0,,,,,,,,,,,,,,,,,,,,,,,,,,,,,,,,,,,,,,,,,,,,,,,,,,,,,,,,,,,,,,,,,,,,,,,,,,,,,,,,,,,,,,,,,,,,,,,,,,,,,,,7580295,PX4FMU_V1,251760679a4bed86fdb10746062fde2cc23e460f,test,305419904.0
0.000805333431344,-0.0156893841922,-2.10570073128,-0.0149975251406,-0.00408185925335,0.054834201932,-0.182169571519,0.113638937473,-9.53991603851,0.0,0.0,-2.10569548607,0.178934007883,-0.182169571519,0.113638937473,-9.53991603851,-0.00631438288838,0.00261238496751,0.0289739128202,-0.0625973045826,0.138520792127,0.43602925539,1019.95996094,-55.7057571411,26.7099990845,0.0,0.0,0.0,0.0,0.497118413448,0.0,0.0,0.0,0.0,0.312281966209,0.0,0.0,0.0,10,1,0,20.0,1.01756763458,,,,,,,,,,,,,,,,,,,,0.00142625463195,0.0107287401333,-0.00705884536728,0.178934007883,0,2,0,1.0,0,1,0.0,-0.0,0.178934007883,0.0247524753213,-1.0,0.776942372322,-0.998161792755,0.0,7,0,96.0,89.0,91.0,86.0,0.0,0.0,0.0,0.0,,,,-0.00402633566409,0.0784469097853,0.00777523731813,0,-3,-0.00438429508358,0.0918726995587,4.34299993515,0,77,,,,,,,,,,,,,,,,,,,,,,,,,,,,,,,,,11.6662855148,11.882900238,-1.0,-1.0,,,,,,,,,,,,,,,,,,,,,,,,,,,,,,,,,,,,,,,,,,,,,,,,,,,,,,,,,,,,,,,,,,,,,,,,,,,,,,,,,,,,,,,,,,,,,,,,,,,,,,,7601459,PX4FMU_V1,251760679a4bed86fdb10746062fde2cc23e460f,test,305419904.0
0.00096638960531,-0.015715258196,-2.10647368431,0.00160939071793,-0.00562465144321,0.00458919256926,-0.0194381717592,-0.0978083461523,-9.90241241455,0.0,0.0,-2.10444998741,0.191624358296,-0.0194381717592,-0.0978083461523,-9.90241241455,-0.0115388352424,-0.0110694803298,0.0775088518858,-0.0919534787536,0.120211623609,0.444040209055,1019.92999268,-55.457359314,26.7099990845,0.0,0.0,0.0,0.0,0.500945329666,0.0,0.0,0.0,0.0,0.311336606741,0.0,0.0,0.0,10,1,0,20.0,1.01768779755,,,,,,,,,,,,,,,,,,,,-0.00083732244093,0.0109461229295,0.000780482485425,0.191624358296,0,2,0,1.0,0,1,0.0,-0.0,0.191624358296,0.0247524753213,-1.0,0.776942372322,-0.998161792755,0.0,7,0,96.0,102.0,93.0,97.0,0.0,0.0,0.0,0.0,,,,-0.00483155157417,0.0785762965679,0.00979240890592,-1,14,0.157850727439,-1.77218341827,4.34299993515,0,77,,,,,,,,,,,,,,,,,,,,,,,,,,,,,,,,,11.7081899643,11.8825006485,-1.0,-1.0,,,,,,,,,,,,,,,,,,,,,,,,,,,,,,,,,,,,,,,,,,,,,,,,,,,,,,,,,,,,,,,,,,,,,,,,,,,,,,,,,,,,,,,,,,,,,,,,,,,,,,,7624280,PX4FMU_V1,251760679a4bed86fdb10746062fde2cc23e460f,test,305419904.0
0.000842153502163,-0.0156938340515,-2.10532546043,5.11766556883e-05,0.000389314169297,-0.0360751599073,-0.259207934141,-0.0149493813515,-9.81770133972,0.0,0.0,-2.10342001915,0.208121821284,-0.259207934141,-0.0149493813515,-9.81770133972,0.011043464765,-0.000842445646413,-0.0897168517113,-0.0625973045826,0.133527368307,0.421787559986,1019.92999268,-55.457359314,26.7099990845,0.0,0.0,0.0,0.0,0.502078056335,0.0,0.0,0.0,0.0,0.313537329435,0.0,0.0,0.0,10,0,0,20.0,1.01774740219,,,,,,,,,,,,,,,,,,,,-0.000554007769097,0.0101503813639,0.00686254026368,0.208121821284,0,2,0,1.0,0,1,0.0,-0.0,0.208121821284,0.0247524753213,-1.0,0.776942372322,-0.998161792755,0.0,7,0,107.0,109.0,103.0,104.0,0.0,0.0,0.0,0.0,,,,-0.00421042181551,0.0784691721201,0.00967510603368,17,20,-2.20611572266,-2.57330322266,4.34299993515,0,77,,,,,,,,,,,,,,,,,,,,,,,,,,,,,,,,,11.6243810654,11.8820352554,-1.0,-1.0,,,,,,,,,,,,,,,,,,,,,,,,,,,,,,,,,,,,,,,,,,,,,,,,,,,,,,,,,,,,,,,,,,,,,,,,,,,,,,,,,,,,,,,,,,,,,,,,,,,,,,,7644727,PX4FMU_V1,251760679a4bed86fdb10746062fde2cc23e460f,test,305419904.0
0.0008044752758,-0.0157681629062,-2.1045320034,-0.00947499088943,-0.00508253881708,0.0223378390074,-0.0204164385796,-0.193037092686,-9.46500301361,0.0,0.0,-2.10237765312,0.229695424438,-0.0204164385796,-0.193037092686,-9.46500301361,-0.0151352118701,-0.00116670969874,0.0250084735453,-0.0580103993416,0.134359613061,0.421787559986,1019.95996094,-55.7057571411,26.7099990845,0.0,0.0,0.0,0.0,0.50643414259,0.0,0.0,0.0,0.0,0.31129309535,0.0,0.0,0.0,10,0,0,20.0,1.01786899567,,,,,,,,,,,,,,,,,,,,0.000708883337211,0.0109100332484,-0.00186203315388,0.229695424438,0,2,0,1.0,0,0,0.0,-0.0,0.229695424438,0.0247524753213,-1.0,0.776942372322,-0.998161792755,0.0,7,0,120.0,118.0,115.0,113.0,0.0,0.0,0.0,0.0,,,,-0.00402204180136,0.0788407921791,0.00992428511381,8,17,-1.02331769466,-2.14808440208,4.34299993515,0,77,,,,,,,,,,,,,,,,,,,,,,,,,,,,,,,,,11.6411428452,11.8817939758,-1.0,-1.0,,,,,,,,,,,,,,,,,,,,,,,,,,,,,,,,,,,,,,,,,,,,,,,,,,,,,,,,,,,,,,,,,,,,,,,,,,,,,,,,,,,,,,,,,,,,,,,,,,,,,,,7666134,PX4FMU_V1,251760679a4bed86fdb10746062fde2cc23e460f,test,305419904.0
0.000638797588181,-0.0158002730459,-2.10433769226,0.0040069189854,-0.000119152806292,0.0255971495062,-0.110267534852,0.0581825338304,-9.85728359222,0.0,0.0,-2.10112571716,0.229695424438,-0.110267534852,0.0581825338304,-9.85728359222,0.0128773842007,0.00266263121739,0.060439709574,-0.0717710927129,0.139353007078,0.4262380898,1019.9699707,-55.7885551453,26.7099990845,0.0,0.0,0.0,0.0,0.511969864368,0.0,0.0,0.0,0.0,0.313090145588,0.0,0.0,0.0,10,0,0,20.0,1.01798820496,,,,,,,,,,,,,,,,,,,,-0.000936083553825,0.0102856652811,-0.00219211564399,0.229695424438,0,2,0,1.0,0,0,0.0,-0.0,0.229695424438,0.0247524753213,-1.0,0.776942372322,-0.998161792755,0.0,7,0,119.0,120.0,114.0,115.0,0.0,0.0,0.0,0.0,,,,-0.00319372396916,0.079001352191,0.0109830461442,0,-5,-0.0767448991537,0.694283008575,4.34299993515,0,77,,,,,,,,,,,,,,,,,,,,,,,,,,,,,,,,,11.6327619553,11.8813381195,-1.0,-1.0,,,,,,,,,,,,,,,,,,,,,,,,,,,,,,,,,,,,,,,,,,,,,,,,,,,,,,,,,,,,,,,,,,,,,,,,,,,,,,,,,,,,,,,,,,,,,,,,,,,,,,,7688244,PX4FMU_V1,251760679a4bed86fdb10746062fde2cc23e460f,test,305419904.0
0.000713293382432,-0.0157738681883,-2.10277032852,-0.0107878781855,0.000233539307374,-0.0228908415884,0.164162352681,0.0848396271467,-9.74825382233,0.0,0.0,-2.10001134872,0.253807097673,0.164162352681,0.0848396271467,-9.74825382233,-0.0186097472906,-0.00469258334488,-0.0120205767453,-0.0515887401998,0.139353007078,0.436919361353,1019.97998047,-55.8713493347,26.6999988556,0.0,0.0,0.0,0.0,0.518490970135,0.0,0.0,0.0,0.0,0.317794293165,0.0,0.0,0.0,10,0,0,20.0,1.0181081295,,,,,,,,,,,,,,,,,,,,0.00093882199144,0.010222658515,0.00512971868739,0.253807097673,0,2,0,1.0,0,0,0.0,-0.0,0.253807097673,0.0272277221084,-1.0,0.776942372322,-0.998161792755,0.0,7,0,129.0,134.0,123.0,129.0,0.0,0.0,0.0,0.0,,,,-0.00356617034413,0.0788693726063,0.0113072823733,0,0,0.0,0.0,4.37400007248,0,77,,,,,,,,,,,,,,,,,,,,,,,,,,,,,,,,,11.6830472946,11.8809251785,-1.0,-1.0,,,,,,,,,,,,,,,,,,,,,,,,,,,,,,,,,,,,,,,,,,,,,,,,,,,,,,,,,,,,,,,,,,,,,,,,,,,,,,,,,,,,,,,,,,,,,,,,,,,,,,,7709212,PX4FMU_V1,251760679a4bed86fdb10746062fde2cc23e460f,test,305419904.0
0.000584046763834,-0.0159626975656,-2.10437822342,-0.0020086967852,-0.00979212950915,-0.00237178057432,-0.684765517712,-0.23021531105,-9.5106306076,0.0,0.0,-2.09893131256,0.260152280331,-0.684765517712,-0.23021531105,-9.5106306076,-0.00327355973423,-0.00922571960837,-0.0389776900411,-0.0827796682715,0.117714904249,0.43602925539,1019.92999268,-55.457359314,26.6999988556,0.0,0.0,0.0,0.0,0.520481348038,0.0,0.0,0.0,0.0,0.315624386072,0.0,0.0,0.0,10,0,0,20.0,1.01816940308,,,,,,,,,,,,,,,,,,,,-0.000118467884022,0.0116487303749,0.0023385300301,0.260152280331,0,2,0,1.0,0,0,0.0,-0.0,0.260152280331,0.0247524753213,-0.99816006422,0.776942372322,-0.998161792755,0.0,7,0,135.0,135.0,130.0,129.0,0.0,0.0,0.0,0.0,,,,-0.00291998824105,0.0798134952784,0.0132184196264,0,0,0.0,0.0,4.37400007248,0,77,,,,,,,,,,,,,,,,,,,,,,,,,,,,,,,,,11.6243810654,11.8803529739,-1.0,-1.0,,,,,,,,,,,,,,,,,,,,,,,,,,,,,,,,,,,,,,,,,,,,,,,,,,,,,,,,,,,,,,,,,,,,,,,,,,,,,,,,,,,,,,,,,,,,,,,,,,,,,,,7730337,PX4FMU_V1,251760679a4bed86fdb10746062fde2cc23e460f,test,305419904.0
0.000838486826979,-0.0155636807904,-2.10340380669,0.0165499262512,0.00993413571268,0.0139452200383,-0.108827546239,-0.492088735104,-9.54985523224,0.0,0.0,-2.09760522842,0.260152280331,-0.108827546239,-0.492088735104,-9.54985523224,0.0115843275562,-0.00766010861844,-0.021780544892,-0.0699363574386,0.124372787774,0.432468831539,1019.89996338,-55.2089576721,26.6999988556,0.0,0.0,0.0,0.0,0.520625650883,0.0,0.0,0.0,0.0,0.315386652946,0.0,0.0,0.0,10,0,0,20.0,1.01828944683,,,,,,,,,,,,,,,,,,,,-0.00269646360539,0.00882495660335,6.01060710324e-05,0.260152280331,0,2,0,1.0,0,0,0.0,-0.0,0.260152280331,0.0272277221084,-1.0,0.776942372322,-0.998161792755,0.0,7,0,135.0,134.0,132.0,128.0,0.0,0.0,0.0,0.0,,,,-0.00419210176915,0.077818416059,0.014345927164,0,0,0.0,0.0,4.37400007248,0,77,,,,,,,,,,,,,,,,,,,,,,,,,,,,,,,,,11.6662855148,11.8798999786,-1.0,-1.0,,,,,,,,,,,,,,,,,,,,,,,,,,,,,,,,,,,,,,,,,,,,,,,,,,,,,,,,,,,,,,,,,,,,,,,,,,,,,,,,,,,,,,,,,,,,,,,,,,,,,,,7752226,PX4FMU_V1,251760679a4bed86fdb10746062fde2cc23e460f,test,305419904.0
0.000576062477194,-0.0157246235758,-2.10314559937,-0.0140427416191,-0.00953242462128,0.00214562658221,0.358040809631,0.174466058612,-9.7501373291,0.0,0.0,-2.09653449059,0.275380700827,0.358040809631,0.174466058612,-9.7501373291,-0.00576803553849,-0.00120884540956,0.0317190028727,-0.0662668198347,0.119379386306,0.432468831539,1019.9699707,-55.7885551453,26.7099990845,0.0,0.0,0.0,0.0,0.525155425072,0.0,0.0,0.0,0.0,0.31700104475,0.0,0.0,0.0,10,0,0,20.0,1.01840937138,,,,,,,,,,,,,,,,,,,,0.00145114655606,0.0114602195099,0.00183556100819,0.275380700827,0,2,0,1.0,0,0,0.0,-0.0,0.275380700827,0.0247524753213,-1.0,0.776942372322,-0.998161792755,0.0,7,0,141.0,145.0,134.0,139.0,0.0,0.0,0.0,0.0,,,,-0.00288007548079,0.0786231160164,0.0143826995045,11,-27,-0.634858250618,1.56237912178,4.37400007248,43,77,,,,,,,,,,,,,,,,,,,,,,,,,,,,,,,,,11.6579046249,11.8796777725,-1.0,-1.0,,,,,,,,,,,,,,,,,,,,,,,,,,,,,,,,,,,,,,,,,,,,,,,,,,,,,,,,,,,,,,,,,,,,,,,,,,,,,,,,,,,,,,,,,,,,,,,,,,,,,,,7772726,PX4FMU_V1,251760679a4bed86fdb10746062fde2cc23e460f,test,305419904.0
0.00041164382128,-0.0159675218165,-2.10571956635,-0.00541316717863,-0.00273603899404,-0.0127429924905,0.111816138029,0.14996650815,-10.1166439056,0.0,0.0,-2.09544444084,0.303299486637,0.111816138029,0.14996650815,-10.1166439056,0.00635488331318,0.00391281256452,0.0180236101151,-0.0836970582604,0.106063626707,0.432468831539,1019.94995117,-55.622959137,26.7099990845,0.0,0.0,0.0,0.0,0.530250906944,0.0,0.0,0.0,0.0,0.317215353251,0.0,0.0,0.0,10,0,0,20.0,1.01852929592,,,,,,,,,,,,,,,,,,,,0.000436166475993,0.0107345720753,0.00473529845476,0.303299486637,0,2,0,1.0,0,0,0.0,-0.0,0.303299486637,0.0272277221084,-1.0,0.776942372322,-0.998161792755,0.0,7,0,155.0,159.0,149.0,154.0,0.0,0.0,0.0,0.0,,,,-0.00205804035068,0.0798375979066,0.018825661391,4,42,-0.236332386732,-2.30216097832,4.31599998474,67,77,,,,,,,,,,,,,,,,,,,,,,,,,,,,,,,,,11.6076192856,11.879117012,-1.0,-1.0,,,,,,,,,,,,,,,,,,,,,,,,,,,,,,,,,,,,,,,,,,,,,,,,,,,,,,,,,,,,,,,,,,,,,,,,,,,,,,,,,,,,,,,,,,,,,,,,,,,,,,,7794085,PX4FMU_V1,251760679a4bed86fdb10746062fde2cc23e460f,test,305419904.0
0.000510958954692,-0.0159670207649,-2.10652327538,-0.00492559187114,-0.00368210440502,-0.0134556284174,-0.258474260569,0.0764207541943,-9.75611114502,0.0,0.0,-2.09415006638,0.329949229956,-0.258474260569,0.0764207541943,-9.75611114502,-0.00787385832518,-0.00726843671873,-0.0011915913783,-0.0589277818799,0.141017496586,0.43602925539,1019.94995117,-55.622959137,26.6999988556,0.0,0.0,0.0,0.0,0.534325420856,0.0,0.0,0.0,0.0,0.319011449814,0.0,0.0,0.0,10,0,0,20.0,1.01864981651,,,,,,,,,,,,,,,,,,,,0.000308231508825,0.0108572365716,0.0050401315093,0.329949229956,0,2,0,1.0,0,0,0.0,-0.0,0.329949229956,0.0247524753213,-1.0,0.776942372322,-0.998161792755,0.0,7,0,168.0,173.0,162.0,168.0,0.0,0.0,0.0,0.0,,,,-0.00255458010361,0.0798351019621,0.0201452467591,17,-26,-2.25388002396,3.49644136429,4.31599998474,55,77,,,,,,,,,,,,,,,,,,,,,,,,,,,,,,,,,11.5070476532,11.8783817291,-1.0,-1.0,,,,,,,,,,,,,,,,,,,,,,,,,,,,,,,,,,,,,,,,,,,,,,,,,,,,,,,,,,,,,,,,,,,,,,,,,,,,,,,,,,,,,,,,,,,,,,,,,,,,,,,7816470,PX4FMU_V1,251760679a4bed86fdb10746062fde2cc23e460f,test,305419904.0
0.000369403074728,-0.0160390734673,-2.10711407661,-0.0249738860875,-0.00765713909641,-0.0337639227509,-0.9969394207,0.120278432965,-9.43467140198,0.0,0.0,-2.09302639961,0.337563455105,-0.9969394207,0.120278432965,-9.43467140198,-0.0488765761256,-0.00324372947216,-0.0853641778231,-0.0827796682715,0.139353007078,0.432468831539,1019.90997314,-55.291759491,26.6999988556,0.0,0.0,0.0,0.0,0.535004079342,0.0,0.0,0.0,0.0,0.31596237421,0.0,0.0,0.0,10,0,0,20.0,1.01871025562,,,,,,,,,,,,,,,,,,,,0.00300651369616,0.0114208292216,0.00846039969474,0.337563455105,0,2,0,1.0,0,0,0.0,-0.0,0.337563455105,0.0272277221084,-1.0,0.776942372322,-0.998161792755,0.0,7,0,171.0,178.0,164.0,174.0,0.0,0.0,0.0,0.0,,,,-0.0018468570197,0.0801953971386,0.0226387381554,0,0,0.0,0.0,4.31599998474,0,77,,,,,,,,,,,,,,,,,,,,,,,,,,,,,,,,,11.523809433,11.8776397705,-1.0,-1.0,,,,,,,,,,,,,,,,,,,,,,,,,,,,,,,,,,,,,,,,,,,,,,,,,,,,,,,,,,,,,,,,,,,,,,,,,,,,,,,,,,,,,,,,,,,,,,,,,,,,,,,7837404,PX4FMU_V1,251760679a4bed86fdb10746062fde2cc23e460f,test,305419904.0
0.000232865859289,-0.0160551182926,-2.10757398605,0.00273150438443,-0.00882722716779,-0.0151354139671,-0.439848840237,0.289928525686,-9.70409679413,0.0,0.0,-2.09194493294,0.351522833109,-0.439848840237,0.289928525686,-9.70409679413,0.0021031962242,-0.00780580658466,-0.0443734042346,-0.0653494372964,0.116882666945,0.439589679241,1019.91998291,-55.3745613098,26.6999988556,0.0,0.0,0.0,0.0,0.535671412945,0.0,0.0,0.0,0.0,0.316481024027,0.0,0.0,0.0,10,0,0,20.0,1.01883065701,,,,,,,,,,,,,,,,,,,,-0.00050644465955,0.0115833664313,0.0057808412239,0.351522833109,0,2,0,1.0,0,0,0.0,-0.0,0.351522833109,0.0247524753213,-1.0,0.779448628426,-0.998161792755,0.0,7,0,180.0,184.0,174.0,177.0,0.0,0.0,0.0,0.0,,,,-0.0011642241152,0.0802755951881,0.0234035272151,-17,5,1.16450679302,-0.380330920219,4.31599998474,51,77,,,,,,,,,,,,,,,,,,,,,,,,,,,,,,,,,11.5573329926,11.8773193359,-1.0,-1.0,,,,,,,,,,,,,,,,,,,,,,,,,,,,,,,,,,,,,,,,,,,,,,,,,,,,,,,,,,,,,,,,,,,,,,,,,,,,,,,,,,,,,,,,,,,,,,,,,,,,,,,7858392,PX4FMU_V1,251760679a4bed86fdb10746062fde2cc23e460f,test,305419904.0
0.000560114742257,-0.0159462690353,-2.10883688927,0.0153476903215,0.000785196258221,0.00572898238897,-0.126828044653,-0.181086182594,-9.18706512451,0.0,0.0,-2.09069776535,0.351522833109,-0.126828044653,-0.181086182594,-9.18706512451,-0.00638304185122,-0.00987251475453,-0.0201102048159,-0.0745232477784,0.111057035625,0.434249043465,1019.95996094,-55.7057571411,26.6899986267,0.0,0.0,0.0,0.0,0.540683805943,0.0,0.0,0.0,0.0,0.315904766321,0.0,0.0,0.0,10,0,0,20.0,1.01895081997,,,,,,,,,,,,,,,,,,,,-0.00235924287699,0.0102630015463,0.00302728591487,0.351522833109,0,2,0,1.0,0,0,0.0,-0.0,0.351522833109,0.0247524753213,-1.0,0.779448628426,-0.998161792755,0.0,7,0,180.0,183.0,177.0,176.0,0.0,0.0,0.0,0.0,,,,-0.00280033354647,0.0797313600779,0.0259108878672,0,0,0.0,0.0,4.31599998474,0,77,,,,,,,,,,,,,,,,,,,,,,,,,,,,,,,,,11.5321903229,11.8766040802,-1.0,-1.0,,,,,,,,,,,,,,,,,,,,,,,,,,,,,,,,,,,,,,,,,,,,,,,,,,,,,,,,,,,,,,,,,,,,,,,,,,,,,,,,,,,,,,,,,,,,,,,,,,,,,,,7880737,PX4FMU_V1,251760679a4bed86fdb10746062fde2cc23e460f,test,305419904.0
0.000350606715074,-0.0159658882767,-2.10951423645,0.00166335096583,-0.00797190889716,0.0356042981148,0.519612431526,-0.26602178812,-9.6701374054,0.0,0.0,-2.08965992928,0.369289338589,0.519612431526,-0.26602178812,-9.6701374054,0.0177226681262,-0.0160014554858,0.0620314143598,-0.0736058652401,0.0960768088698,0.435139149427,1019.92999268,-55.457359314,26.6899986267,0.0,0.0,0.0,0.0,0.543610155582,0.0,0.0,0.0,0.0,0.314134210348,0.0,0.0,0.0,10,0,0,20.0,1.01907122135,,,,,,,,,,,,,,,,,,,,-0.00044410963892,0.0114141749218,-0.00119650922716,0.369289338589,0,2,0,1.0,0,0,0.0,-0.0,0.369289338589,0.0247524753213,-1.0,0.776942372322,-0.998161792755,0.0,7,0,190.0,191.0,184.0,186.0,0.0,0.0,0.0,0.0,,,,-0.00175287714228,0.0798294395208,0.0276275705546,0,0,0.0,0.0,4.36199998856,0,77,,,,,,,,,,,,,,,,,,,,,,,,,,,,,,,,,11.5740947723,11.8759908676,-1.0,-1.0,,,,,,,,,,,,,,,,,,,,,,,,,,,,,,,,,,,,,,,,,,,,,,,,,,,,,,,,,,,,,,,,,,,,,,,,,,,,,,,,,,,,,,,,,,,,,,,,,,,,,,,7901788,PX4FMU_V1,251760679a4bed86fdb10746062fde2cc23e460f,test,305419904.0
0.000165917343111,-0.0161034408957,-2.10998821259,0.00274082249962,0.0063581247814,0.0109927114099,0.476772069931,-0.330449819565,-10.1892642975,0.0,0.0,-2.08862280846,0.387055844069,0.476772069931,-0.330449819565,-10.1892642975,0.0314891934395,0.015617897734,0.0380426160991,-0.0607625506818,0.101902455091,0.443150103092,1019.9699707,-55.7885551453,26.6999988556,0.0,0.0,0.0,0.0,0.544568300247,0.0,0.0,0.0,0.0,0.318446576595,0.0,0.0,0.0,10,0,0,20.0,1.01913154125,,,,,,,,,,,,,,,,,,,,-0.000464143668069,0.00964067783207,0.00272212550044,0.387055844069,0,2,0,1.0,0,0,0.0,-0.0,0.387055844069,0.0247524753213,-1.0,0.779448628426,-0.998161792755,0.0,7,0,198.0,201.0,193.0,196.0,0.0,0.0,0.0,0.0,,,,-0.00082951359218,0.0805171877146,0.0291402135044,0,0,0.0,0.0,4.36199998856,0,77,,,,,,,,,,,,,,,,,,,,,,,,,,,,,,,,,11.4902858734,11.8752202988,-1.0,-1.0,,,,,,,,,,,,,,,,,,,,,,,,,,,,,,,,,,,,,,,,,,,,,,,,,,,,,,,,,,,,,,,,,,,,,,,,,,,,,,,,,,,,,,,,,,,,,,,,,,,,,,,7923079,PX4FMU_V1,251760679a4bed86fdb10746062fde2cc23e460f,test,305419904.0
0.000436969043221,-0.0159294586629,-2.1105697155,0.00885621272027,0.00549193378538,-0.0209600031376,0.719583630562,-0.745327651501,-10.07396698,0.0,0.0,-2.08737325668,0.394670039415,0.719583630562,-0.745327651501,-10.07396698,0.0171314384788,-0.00046236885828,0.0355488844216,-0.0781927853823,0.135191857815,0.437809497118,1019.94000244,-55.5401611328,26.6999988556,0.0,0.0,0.0,0.0,0.549896597862,0.0,0.0,0.0,0.0,0.318453282118,0.0,0.0,0.0,10,0,0,20.0,1.01925122738,,,,,,,,,,,,,,,,,,,,-0.0014353125589,0.0096401963383,0.00778936082497,0.394670039415,0,2,0,1.0,0,0,0.0,-0.0,0.394670039415,0.0247524753213,-1.0,0.776942372322,-0.998161792755,0.0,7,0,196.0,211.0,191.0,205.0,0.0,0.0,0.0,0.0,,,,-0.00218465388753,0.079647295177,0.0309690665454,0,0,0.0,0.0,4.36199998856,0,77,,,,,,,,,,,,,,,,,,,,,,,,,,,,,,,,,11.4651432037,11.8744001389,-1.0,-1.0,,,,,,,,,,,,,,,,,,,,,,,,,,,,,,,,,,,,,,,,,,,,,,,,,,,,,,,,,,,,,,,,,,,,,,,,,,,,,,,,,,,,,,,,,,,,,,,,,,,,,,,7944629,PX4FMU_V1,251760679a4bed86fdb10746062fde2cc23e460f,test,305419904.0
-2.33994433074e-05,-0.016199734062,-2.11040139198,-0.0284137781709,-0.0183167923242,0.0124351661652,0.592101335526,-0.644387722015,-10.0953464508,0.0,0.0,-2.08625245094,0.40736040473,0.592101335526,-0.644387722015,-10.0953464508,-0.0102466465905,-0.0143499160185,0.0605934374034,-0.0699363574386,0.134359613061,0.436919361353,1019.94000244,-55.5401611328,26.6999988556,0.0,0.0,0.0,0.0,0.552707850933,0.0,0.0,0.0,0.0,0.319374412298,0.0,0.0,0.0,10,0,0,20.0,1.01937139034,,,,,,,,,,,,,,,,,,,,0.00370899913833,0.0129110096022,0.00304015981965,0.40736040473,0,2,0,1.0,0,0,0.0,-0.0,0.40736040473,0.0272277221084,-1.0,0.776942372322,-0.998161792755,0.0,7,0,208.0,213.0,199.0,209.0,0.0,0.0,0.0,0.0,,,,0.000116986208013,0.0809986740351,0.032702896744,0,0,0.0,0.0,4.36199998856,0,77,,,,,,,,,,,,,,,,,,,,,,,,,,,,,,,,,11.4902858734,11.8740158081,-1.0,-1.0,,,,,,,,,,,,,,,,,,,,,,,,,,,,,,,,,,,,,,,,,,,,,,,,,,,,,,,,,,,,,,,,,,,,,,,,,,,,,,,,,,,,,,,,,,,,,,,,,,,,,,,7965439,PX4FMU_V1,251760679a4bed86fdb10746062fde2cc23e460f,test,305419904.0
-4.71366693091e-05,-0.0160566493869,-2.11241698265,0.0173214524984,0.0297544132918,0.026963353157,0.152548924088,-0.384391188622,-9.37247657776,0.0,0.0,-2.08511161804,0.414974629879,0.152548924088,-0.384391188622,-9.37247657776,0.0313494838774,0.0338350869715,0.0170997343957,-0.0781927853823,0.116882666945,0.442259997129,1020.0,-56.0369415283,26.6999988556,0.0,0.0,0.0,0.0,0.560469150543,0.0,0.0,0.0,0.0,0.32094040513,0.0,0.0,0.0,10,0,0,20.0,1.01949191093,,,,,,,,,,,,,,,,,,,,-0.00222115218639,0.00656874384731,0.00133442645893,0.414974629879,0,2,0,1.0,0,0,0.0,-0.0,0.414974629879,0.0272277221084,-1.0,0.776942372322,-0.998161792755,0.0,7,0,212.0,214.0,209.0,209.0,0.0,0.0,0.0,0.0,,,,0.000235664978391,0.0802832171321,0.035859528929,-9,9,1.27955317497,-1.2815515995,4.36199998856,0,77,,,,,,,,,,,,,,,,,,,,,,,,,,,,,,,,,11.4902858734,11.8732738495,-1.0,-1.0,,,,,,,,,,,,,,,,,,,,,,,,,,,,,,,,,,,,,,,,,,,,,,,,,,,,,,,,,,,,,,,,,,,,,,,,,,,,,,,,,,,,,,,,,,,,,,,,,,,,,,,7986729,PX4FMU_V1,251760679a4bed86fdb10746062fde2cc23e460f,test,305419904.0
0.000589437433518,-0.0157218500972,-2.11111903191,0.00640207156539,0.00466055329889,0.0176714900881,1.07097315788,-1.39404463768,-9.27091598511,0.0,0.0,-2.08373093605,0.418781727552,1.07097315788,-1.39404463768,-9.27091598511,-0.00127766304649,0.00274608423933,0.014741551131,-0.0589277818799,0.121876083314,0.433358937502,1019.98999023,-55.9541473389,26.6999988556,0.0,0.0,0.0,0.0,0.568581938744,0.0,0.0,0.0,0.0,0.323425859213,0.0,0.0,0.0,10,0,0,20.0,1.01961290836,,,,,,,,,,,,,,,,,,,,-0.00121537188534,0.00961332768202,0.00273986905813,0.418781727552,0,2,0,1.0,0,0,0.0,-0.0,0.418781727552,0.0272277221084,-1.0,0.776942372322,-0.998161792755,0.0,7,0,214.0,217.0,210.0,212.0,0.0,0.0,0.0,0.0,,,,-0.002946942579,0.0786092281342,0.0359372831881,0,0,0.0,0.0,4.36199998856,0,77,,,,,,,,,,,,,,,,,,,,,,,,,,,,,,,,,11.5070476532,11.8725166321,-1.0,-1.0,,,,,,,,,,,,,,,,,,,,,,,,,,,,,,,,,,,,,,,,,,,,,,,,,,,,,,,,,,,,,,,,,,,,,,,,,,,,,,,,,,,,,,,,,,,,,,,,,,,,,,,8009241,PX4FMU_V1,251760679a4bed86fdb10746062fde2cc23e460f,test,305419904.0
-5.48573871129e-06,-0.0160628072917,-2.11012482643,-0.0429227463901,-0.0200976207852,0.0288831926882,0.330307900906,-0.664005160332,-9.70943450928,0.0,-0.00156632135622,-2.08259487152,0.421319782734,0.330307900906,-0.664005160332,-9.70943450928,-0.0394241586328,-0.0166420843452,0.00324936327524,-0.061679918319,0.121876083314,0.441369891167,1019.94995117,-55.622959137,26.6999988556,0.0,0.0,0.0,0.0,0.571767389774,0.0,0.0,0.0,0.0,0.322598934174,0.0,0.0,0.0,10,0,0,20.0,1.01967251301,,,,,,,,,,,,,,,,,,,,0.00561154820025,0.0120357889682,0.00108002277557,0.421319782734,0,2,0,1.0,0,0,0.0,0.0025641026441,0.421319782734,0.0272277221084,-1.0,0.776942372322,-0.998161792755,0.0,7,0,219.0,216.0,210.0,212.0,0.0,0.0,0.0,0.0,,,,0.000243011920247,0.0724853724241,0.0360833443701,0,0,0.0,0.0,4.36199998856,0,77,,,,,,,,,,,,,,,,,,,,,,,,,,,,,,,,,11.4986667633,11.8717603683,-1.0,-1.0,,,,,,,,,,,,,,,,,,,,,,,,,,,,,,,,,,,,,,,,,,,,,,,,,,,,,,,,,,,,,,,,,,,,,,,,,,,,,,,,,,,,,,,,,,,,,,,,,,,,,,,8029881,PX4FMU_V1,251760679a4bed86fdb10746062fde2cc23e460f,test,305419904.0
-0.000576767371967,-0.0162065774202,-2.10720014572,-0.0128072248772,0.00852150842547,0.0610410682857,-0.186627388,-0.00974294543266,-9.21793746948,0.0,-0.00939792767167,-2.08151459694,0.423857867718,-0.186627388,-0.00974294543266,-9.21793746948,0.00998080149293,0.0169739574194,0.0649164989591,-0.0488366037607,0.124372787774,0.440479785204,1019.97998047,-55.8713493347,26.6999988556,0.0,0.0,0.0,0.0,0.576425433159,0.0,0.0,0.0,0.0,0.322454184294,0.0,0.0,0.0,10,0,0,20.0,1.0197930336,,,,,,,,,,,,,,,,,,,,0.00219671800733,0.00331984180957,-0.00413734326139,0.423857867718,0,2,0,1.0,0,0,0.0,0.0153846153989,0.423857867718,0.0247524753213,-1.0,0.776942372322,-0.998161792755,0.0,7,0,219.0,214.0,216.0,213.0,0.0,0.0,0.0,0.0,,,,0.00409060670063,0.034058753401,0.0334587804973,0,0,0.0,0.0,4.36199998856,0,77,,,,,,,,,,,,,,,,,,,,,,,,,,,,,,,,,11.4902858734,11.8713788986,-1.0,-1.0,,,,,,,,,,,,,,,,,,,,,,,,,,,,,,,,,,,,,,,,,,,,,,,,,,,,,,,,,,,,,,,,,,,,,,,,,,,,,,,,,,,,,,,,,,,,,,,,,,,,,,,8051203,PX4FMU_V1,251760679a4bed86fdb10746062fde2cc23e460f,test,305419904.0
0.000178955655429,-0.015542846173,-2.1067199707,0.0352225229144,0.0416562482715,0.0893105641007,0.729425728321,-0.968180894852,-9.6753578186,0.0,-0.00939792767167,-2.08026814461,0.423857867718,0.729425728321,-0.968180894852,-9.6753578186,0.0368992872536,0.0518963038921,0.0734046921134,-0.0855318233371,0.128533959389,0.436919361353,1019.97998047,-55.8713493347,26.6999988556,0.0,0.0,0.0,0.0,0.583101093769,0.0,0.0,0.0,0.0,0.324694216251,0.0,0.0,0.0,10,0,0,20.0,1.01991379261,,,,,,,,,,,,,,,,,,,,-0.00453368248418,-0.00141897751018,-0.00826319493353,0.423857867718,0,2,0,1.0,0,0,0.0,0.0153846153989,0.423857867718,0.0247524753213,-1.0,0.776942372322,-0.998161792755,0.0,7,0,218.0,212.0,221.0,211.0,0.0,0.0,0.0,0.0,,,,0.000348044006387,0.0307410359383,0.0342226028442,4,9,-0.539850652218,-1.3295391798,4.36199998856,75,77,,,,,,,,,,,,,,,,,,,,,,,,,,,,,,,,,11.4902858734,11.8706169128,-1.0,-1.0,,,,,,,,,,,,,,,,,,,,,,,,,,,,,,,,,,,,,,,,,,,,,,,,,,,,,,,,,,,,,,,,,,,,,,,,,,,,,,,,,,,,,,,,,,,,,,,,,,,,,,,8073803,PX4FMU_V1,251760679a4bed86fdb10746062fde2cc23e460f,test,305419904.0
-9.13084440981e-05,-0.0158997699618,-2.10662388802,-0.0488095059991,-0.0478350743651,0.0556444749236,0.41287446022,-0.878823637962,-9.88688278198,0.0,-0.0125305708498,-2.07922935486,0.423857867718,0.41287446022,-0.878823637962,-9.88688278198,-0.0713782608509,-0.0744169801474,0.0517466366291,-0.0671842098236,0.117714904249,0.442259997129,1019.90997314,-55.291759491,26.6899986267,0.0,0.0,0.0,0.0,0.586488187313,0.0,0.0,0.0,0.0,0.323985308409,0.0,0.0,0.0,10,0,0,20.0,1.02003335953,,,,,,,,,,,,,,,,,,,,0.00662767607719,0.00841159373522,-0.00307227042504,0.423857867718,0,2,0,1.0,0,0,0.0,0.0205128211528,0.423857867718,0.0247524753213,-1.0,0.776942372322,-0.998161792755,0.0,7,0,220.0,214.0,215.0,214.0,0.0,0.0,0.0,0.0,,,,0.00217261840589,0.0168694965541,0.0351626724005,0,0,0.0,0.0,4.36199998856,0,77,,,,,,,,,,,,,,,,,,,,,,,,,,,,,,,,,11.4986667633,11.8698644638,-1.0,-1.0,,,,,,,,,,,,,,,,,,,,,,,,,,,,,,,,,,,,,,,,,,,,,,,,,,,,,,,,,,,,,,,,,,,,,,,,,,,,,,,,,,,,,,,,,,,,,,,,,,,,,,,8094495,PX4FMU_V1,251760679a4bed86fdb10746062fde2cc23e460f,test,305419904.0
-0.000638972094748,-0.0161437410861,-2.10507440567,-0.0124514596537,0.0146951032802,0.0151105327532,0.440998256207,-0.569955348969,-9.76784896851,0.0,-0.0172295346856,-2.07798433304,0.423857867718,0.440998256207,-0.569955348969,-9.76784896851,0.0140263112262,0.01790972054,0.015358212404,-0.0543408766389,0.121876083314,0.434249043465,1019.94000244,-55.5401611328,26.6899986267,0.0,0.0,0.0,0.0,0.588028967381,0.0,0.0,0.0,0.0,0.325878620148,0.0,0.0,0.0,10,0,0,20.0,1.02015316486,,,,,,,,,,,,,,,,,,,,0.0023373553995,-0.00261202012189,0.00296119530685,0.423857867718,0,2,0,1.0,0,0,0.0,0.0282051283866,0.423857867718,0.0247524753213,-1.0,0.779448628426,-0.998161792755,0.0,7,0,215.0,215.0,214.0,219.0,0.0,0.0,0.0,0.0,,,,0.00552819808945,-0.00539735984057,0.034851834178,4,-1,-0.5814473629,0.185185596347,4.36199998856,43,77,,,,,,,,,,,,,,,,,,,,,,,,,,,,,,,,,11.4986667633,11.8691225052,-1.0,-1.0,,,,,,,,,,,,,,,,,,,,,,,,,,,,,,,,,,,,,,,,,,,,,,,,,,,,,,,,,,,,,,,,,,,,,,,,,,,,,,,,,,,,,,,,,,,,,,,,,,,,,,,8117218,PX4FMU_V1,251760679a4bed86fdb10746062fde2cc23e460f,test,305419904.0
-0.000111762368761,-0.0155201908201,-2.10514831543,0.047692745924,0.037887275219,0.0919823199511,0.529668688774,-0.379340231419,-9.48353099823,0.0,-0.0203621778637,-2.07694101334,0.43527919054,0.529668688774,-0.379340231419,-9.48353099823,0.0577263534069,0.0414491519332,0.143809452653,-0.0836970582604,0.134359613061,0.436919361353,1019.98999023,-55.9541473389,26.6899986267,0.0,0.0,0.0,0.0,0.590080201626,0.0,0.0,0.0,0.0,0.324083834887,0.0,0.0,0.0,10,0,0,20.0,1.02021312714,,,,,,,,,,,,,,,,,,,,-0.00575415045023,-0.008067375049,-0.00840276107192,0.43527919054,0,2,0,1.0,0,0,0.0,0.0333333350718,0.43527919054,0.0247524753213,-1.0,0.776942372322,-0.998161792755,0.0,7,0,220.0,219.0,226.0,220.0,0.0,0.0,0.0,0.0,,,,0.00343004846945,-0.0241694618016,0.0359639152884,0,0,0.0,0.0,4.36199998856,0,77,,,,,,,,,,,,,,,,,,,,,,,,,,,,,,,,,11.5070476532,11.8683824539,-1.0,-1.0,,,,,,,,,,,,,,,,,,,,,,,,,,,,,,,,,,,,,,,,,,,,,,,,,,,,,,,,,,,,,,,,,,,,,,,,,,,,,,,,,,,,,,,,,,,,,,,,,,,,,,,8137834,PX4FMU_V1,251760679a4bed86fdb10746062fde2cc23e460f,test,305419904.0
0.000203245013836,-0.0158698186278,-2.10418510437,-0.017841277644,-0.0436268113554,0.0900921747088,0.564832568169,-0.967426657677,-9.72336578369,0.0,-0.0266274623573,-2.07582759857,0.446700513363,0.564832568169,-0.967426657677,-9.72336578369,-0.0592364855111,-0.0759308710694,0.0941399410367,-0.0818622857332,0.131030678749,0.441369891167,1019.91998291,-55.3745613098,26.6899986267,0.0,0.0,0.0,0.0,0.593506276608,0.0,0.0,0.0,0.0,0.324153602123,0.0,0.0,0.0,10,0,0,20.0,1.0203332901,,,,,,,,,,,,,,,,,,,,0.00267795310356,-0.00131402607076,-0.00798180140555,0.446700513363,0,2,0,1.0,0,0,0.0,0.0435897447169,0.446700513363,0.0272277221084,-1.0,0.776942372322,-0.998161792755,0.0,7,0,232.0,222.0,231.0,224.0,0.0,0.0,0.0,0.0,,,,0.0027583623305,-0.0537347048521,0.0368801690638,0,0,0.0,0.0,4.36199998856,0,77,,,,,,,,,,,,,,,,,,,,,,,,,,,,,,,,,11.4651432037,11.8679790497,-1.0,-1.0,,,,,,,,,,,,,,,,,,,,,,,,,,,,,,,,,,,,,,,,,,,,,,,,,,,,,,,,,,,,,,,,,,,,,,,,,,,,,,,,,,,,,,,,,,,,,,,,,,,,,,,8159144,PX4FMU_V1,251760679a4bed86fdb10746062fde2cc23e460f,test,305419904.0
-0.000100559351267,-0.0157662257552,-2.10140299797,-0.00421018991619,0.0485363788903,0.0420786105096,0.0865640640259,-0.574444234371,-9.03931903839,0.0,-0.0297601055354,-2.07453274727,0.450507611036,0.0865640640259,-0.574444234371,-9.03931903839,0.020170353353,0.0580401048064,0.0250527225435,-0.0534235090017,0.131030678749,0.441369891167,1019.9699707,-55.7885551453,26.6999988556,0.0,0.0,0.0,0.0,0.594719648361,0.0,0.0,0.0,0.0,0.322236001492,0.0,0.0,0.0,10,0,0,20.0,1.02045369148,,,,,,,,,,,,,,,,,,,,0.00113234238233,-0.0153987705708,-0.00112046545837,0.450507611036,0,2,0,1.0,0,0,0.0,0.0487179495394,0.450507611036,0.0247524753213,-1.0,0.776942372322,-0.998161792755,0.0,7,0,228.0,224.0,233.0,232.0,0.0,0.0,0.0,0.0,,,,0.00450013717636,-0.0699157118797,0.0346088409424,-18,-21,2.50951218605,2.81316709518,4.36199998856,51,77,,,,,,,,,,,,,,,,,,,,,,,,,,,,,,,,,11.4567613602,11.8671236038,-1.0,-1.0,,,,,,,,,,,,,,,,,,,,,,,,,,,,,,,,,,,,,,,,,,,,,,,,,,,,,,,,,,,,,,,,,,,,,,,,,,,,,,,,,,,,,,,,,,,,,,,,,,,,,,,8181353,PX4FMU_V1,251760679a4bed86fdb10746062fde2cc23e460f,test,305419904.0
-0.00018701175577,-0.0157010629773,-2.10379171371,-0.021437915042,-0.0330100096762,-0.00161095429212,1.15598297119,-0.627328515053,-10.2536344528,0.0,-0.0313264243305,-2.07341146469,0.45431470871,1.15598297119,-0.627328515053,-10.2536344528,-0.0351544171572,-0.0596269778907,0.0184402447194,-0.0827796682715,0.124372787774,0.432468831539,1019.94995117,-55.622959137,26.6999988556,0.0,0.0,0.0,0.0,0.599238812923,0.0,0.0,0.0,0.0,0.323699623346,0.0,0.0,0.0,10,0,0,20.0,1.02057468891,,,,,,,,,,,,,,,,,,,,0.00352691439912,-0.00585579266772,0.00607470003888,0.45431470871,0,2,0,1.0,0,0,0.0,0.0512820519507,0.45431470871,0.0272277221084,-1.0,0.776942372322,-0.998161792755,0.0,7,0,228.0,232.0,229.0,237.0,0.0,0.0,0.0,0.0,,,,0.0056921960786,-0.0780545696616,0.0388870462775,0,0,0.0,0.0,4.32000017166,0,77,,,,,,,,,,,,,,,,,,,,,,,,,,,,,,,,,11.4735240936,11.86632061,-1.0,-1.0,,,,,,,,,,,,,,,,,,,,,,,,,,,,,,,,,,,,,,,,,,,,,,,,,,,,,,,,,,,,,,,,,,,,,,,,,,,,,,,,,,,,,,,,,,,,,,,,,,,,,,,8202349,PX4FMU_V1,251760679a4bed86fdb10746062fde2cc23e460f,test,305419904.0
-0.000506461714394,-0.0160671565682,-2.10529494286,-0.0191591158509,-0.00870576221496,0.0452665984631,-0.401264548302,-0.0777433663607,-9.09332942963,0.0,-0.0313264243305,-2.07235741615,0.455583751202,-0.401264548302,-0.0777433663607,-9.09332942963,-0.0293604303151,-0.00510659534484,0.074441768229,-0.0919534787536,0.123540557921,0.434249043465,1019.97998047,-55.8713493347,26.6999988556,0.0,0.0,0.0,0.0,0.602425813675,0.0,0.0,0.0,0.0,0.32343313098,0.0,0.0,0.0,10,0,0,20.0,1.02063512802,,,,,,,,,,,,,,,,,,,,0.00349033134989,-0.00877573620528,-0.000690760498401,0.455583751202,0,2,0,1.0,0,0,0.0,0.0512820519507,0.455583751202,0.0247524753213,-1.0,0.776942372322,-0.998161792755,0.0,7,0,229.0,230.0,233.0,236.0,0.0,0.0,0.0,0.0,,,,0.00768958777189,-0.0762114301324,0.0406615287066,0,0,0.0,0.0,4.32000017166,0,77,,,,,,,,,,,,,,,,,,,,,,,,,,,,,,,,,11.4651432037,11.8655109406,-1.0,-1.0,,,,,,,,,,,,,,,,,,,,,,,,,,,,,,,,,,,,,,,,,,,,,,,,,,,,,,,,,,,,,,,,,,,,,,,,,,,,,,,,,,,,,,,,,,,,,,,,,,,,,,,8223535,PX4FMU_V1,251760679a4bed86fdb10746062fde2cc23e460f,test,305419904.0
-6.48673994874e-06,-0.0162534303963,-2.10593509674,0.0417233593762,-0.00349884247407,0.0294436160475,0.51563090086,-0.970626890659,-9.54114246368,0.0,-0.0313264243305,-2.07110023499,0.455583751202,0.51563090086,-0.970626890659,-9.54114246368,0.0516554191709,-0.0117858834565,0.023137813434,-0.0635146871209,0.131030678749,0.438699603081,1019.88995361,-55.1261558533,26.6999988556,0.0,0.0,0.0,0.0,0.607792615891,0.0,0.0,0.0,0.0,0.32494944334,0.0,0.0,0.0,10,0,0,20.0,1.02075457573,,,,,,,,,,,,,,,,,,,,-0.00471073901281,-0.00933024659753,0.00196752138436,0.455583751202,0,2,0,1.0,0,0,0.0,0.0512820519507,0.455583751202,0.0247524753213,-1.0,0.776942372322,-0.998161792755,0.0,7,0,228.0,231.0,234.0,234.0,0.0,0.0,0.0,0.0,,,,0.00548690650612,-0.0752699747682,0.0425604246557,0,0,0.0,0.0,4.32000017166,0,77,,,,,,,,,,,,,,,,,,,,,,,,,,,,,,,,,11.4651432037,11.8647193909,-1.0,-1.0,,,,,,,,,,,,,,,,,,,,,,,,,,,,,,,,,,,,,,,,,,,,,,,,,,,,,,,,,,,,,,,,,,,,,,,,,,,,,,,,,,,,,,,,,,,,,,,,,,,,,,,8245506,PX4FMU_V1,251760679a4bed86fdb10746062fde2cc23e460f,test,305419904.0
-0.000180220697075,-0.0160521306098,-2.10670542717,-0.0474759861827,0.00220535625704,0.0283298417926,0.471631169319,-1.22437727451,-9.47467803955,0.0,-0.0313264243305,-2.07007455826,0.468274116516,0.471631169319,-1.22437727451,-9.47467803955,-0.0696159154177,-0.00642124330625,0.0500080548227,-0.0818622857332,0.127701729536,0.440479785204,1019.91998291,-55.3745613098,26.6999988556,0.0,0.0,0.0,0.0,0.606598675251,0.0,0.0,0.0,0.0,0.324910670519,0.0,0.0,0.0,10,0,0,20.0,1.02087509632,,,,,,,,,,,,,,,,,,,,0.00703463656828,-0.0102013330907,0.00240346393548,0.468274116516,0,2,0,1.0,0,0,0.0,0.0512820519507,0.468274116516,0.0247524753213,-1.0,0.776942372322,-0.998161792755,0.0,7,0,235.0,236.0,238.0,244.0,0.0,0.0,0.0,0.0,,,,0.00663660280406,-0.0762664377689,0.0443529337645,0,0,0.0,0.0,4.32000017166,0,77,,,,,,,,,,,,,,,,,,,,,,,,,,,,,,,,,11.4735240936,11.8643283844,-1.0,-1.0,,,,,,,,,,,,,,,,,,,,,,,,,,,,,,,,,,,,,,,,,,,,,,,,,,,,,,,,,,,,,,,,,,,,,,,,,,,,,,,,,,,,,,,,,,,,,,,,,,,,,,,8265934,PX4FMU_V1,251760679a4bed86fdb10746062fde2cc23e460f,test,305419904.0
-0.000586246897001,-0.0162961725146,-2.10611557961,-0.00784379895777,-0.0307218823582,0.0350651703775,0.333880037069,-0.486794054508,-9.82997512817,0.0,-0.0344590693712,-2.06910610199,0.477157354355,0.333880037069,-0.486794054508,-9.82997512817,0.0223341733217,-0.0537416674197,0.0445468090475,-0.0598451644182,0.121043846011,0.445820450783,1019.97998047,-55.8713493347,26.6899986267,0.0,0.0,0.0,0.0,0.607928872108,0.0,0.0,0.0,0.0,0.321951121092,0.0,0.0,0.0,10,0,0,20.0,1.0209954977,,,,,,,,,,,,,,,,,,,,0.0022293580696,-0.00779670802876,0.00133124238346,0.477157354355,0,2,0,1.0,0,0,0.0,0.0564102567732,0.477157354355,0.0222772285342,-1.0,0.776942372322,-0.998161792755,0.0,7,0,241.0,241.0,244.0,246.0,0.0,0.0,0.0,0.0,,,,0.00930511020124,-0.0906965583563,0.0439401194453,0,0,0.0,0.0,4.32000017166,0,77,,,,,,,,,,,,,,,,,,,,,,,,,,,,,,,,,11.389714241,11.8633794785,-1.0,-1.0,,,,,,,,,,,,,,,,,,,,,,,,,,,,,,,,,,,,,,,,,,,,,,,,,,,,,,,,,,,,,,,,,,,,,,,,,,,,,,,,,,,,,,,,,,,,,,,,,,,,,,,8287468,PX4FMU_V1,251760679a4bed86fdb10746062fde2cc23e460f,test,305419904.0
-0.000636441283859,-0.0164829865098,-2.10595583916,-0.0346793681383,0.0131062688306,0.0300761759281,-0.568505167961,-0.958540380001,-9.99740982056,0.0,-0.0391580350697,-2.0679872036,0.477157354355,-0.568505167961,-0.958540380001,-9.99740982056,-0.0476623736322,0.0285828821361,0.0193440522999,-0.0736058652401,0.131030678749,0.440479785204,1019.97998047,-55.8713493347,26.6899986267,0.0,0.0,0.0,0.0,0.614177644253,0.0,0.0,0.0,0.0,0.324892222881,0.0,0.0,0.0,10,0,0,20.0,1.02111542225,,,,,,,,,,,,,,,,,,,,0.00588794704527,-0.0164242666215,0.00222042272799,0.477157354355,0,2,0,1.0,0,0,0.0,0.0641025677323,0.477157354355,0.0222772285342,-1.0,0.779448628426,-0.998161792755,0.0,7,0,239.0,239.0,245.0,249.0,0.0,0.0,0.0,0.0,,,,0.0106125343591,-0.113234251738,0.0448789931834,0,0,0.0,0.0,4.32000017166,0,77,,,,,,,,,,,,,,,,,,,,,,,,,,,,,,,,,11.4232378006,11.8624744415,-1.0,-1.0,,,,,,,,,,,,,,,,,,,,,,,,,,,,,,,,,,,,,,,,,,,,,,,,,,,,,,,,,,,,,,,,,,,,,,,,,,,,,,,,,,,,,,,,,,,,,,,,,,,,,,,8309845,PX4FMU_V1,251760679a4bed86fdb10746062fde2cc23e460f,test,305419904.0
-0.000759922200814,-0.016501693055,-2.10521960258,0.0130711179227,-0.0209278296679,-0.0216646641493,0.20329913497,-0.862404644489,-9.45172595978,0.0,-0.0422906763852,-2.06705546379,0.477157354355,0.20329913497,-0.862404644489,-9.45172595978,0.0400716848671,-0.048049159348,-0.0192703716457,-0.0708537399769,0.139353007078,0.437809497118,1019.89996338,-55.2089576721,26.6899986267,0.0,0.0,0.0,0.0,0.613267183304,0.0,0.0,0.0,0.0,0.320386022329,0.0,0.0,0.0,10,0,0,20.0,1.02117562294,,,,,,,,,,,,,,,,,,,,-0.000156764057465,-0.0140222236514,0.0100085446611,0.477157354355,0,2,0,1.0,0,0,0.0,0.0692307725549,0.477157354355,0.0222772285342,-1.0,0.776942372322,-0.998161792755,0.0,7,0,234.0,244.0,241.0,251.0,0.0,0.0,0.0,0.0,,,,0.0118652405217,-0.128791093826,0.045058965683,1,0,-0.238949164748,-0.0706751942635,4.32000017166,63,77,,,,,,,,,,,,,,,,,,,,,,,,,,,,,,,,,11.4399995804,11.8616294861,-1.0,-1.0,,,,,,,,,,,,,,,,,,,,,,,,,,,,,,,,,,,,,,,,,,,,,,,,,,,,,,,,,,,,,,,,,,,,,,,,,,,,,,,,,,,,,,,,,,,,,,,,,,,,,,,8331544,PX4FMU_V1,251760679a4bed86fdb10746062fde2cc23e460f,test,305419904.0
-0.0003979941539,-0.0165101867169,-2.10735702515,-0.0101547427475,0.00925915781409,0.0258950777352,-0.787323713303,-0.162157326937,-10.1535043716,0.0,-0.0454233177006,-2.0659263134,0.477157354355,-0.787323713303,-0.162157326937,-10.1535043716,-0.0252943113446,0.0297242291272,0.0261163748801,-0.0690189749002,0.12603725493,0.442259997129,1019.91998291,-55.3745613098,26.6899986267,0.0,0.0,0.0,0.0,0.613467931747,0.0,0.0,0.0,0.0,0.324833422899,0.0,0.0,0.0,10,0,0,20.0,1.02129614353,,,,,,,,,,,,,,,,,,,,0.00280138594098,-0.0199719090015,0.00336195412092,0.477157354355,0,2,0,1.0,0,0,0.0,0.0743589773774,0.477157354355,0.0222772285342,-1.0,0.779448628426,-0.998161792755,0.0,7,0,237.0,239.0,246.0,250.0,0.0,0.0,0.0,0.0,,,,0.0113943824545,-0.144370913506,0.0483081042767,1,-45,-0.206881076097,5.85998249054,4.32000017166,0,77,,,,,,,,,,,,,,,,,,,,,,,,,,,,,,,,,11.4399995804,11.860786438,-1.0,-1.0,,,,,,,,,,,,,,,,,,,,,,,,,,,,,,,,,,,,,,,,,,,,,,,,,,,,,,,,,,,,,,,,,,,,,,,,,,,,,,,,,,,,,,,,,,,,,,,,,,,,,,,8353951,PX4FMU_V1,251760679a4bed86fdb10746062fde2cc23e460f,test,305419904.0
-0.000149269384565,-0.0168181881309,-2.10683083534,0.0396903902292,-0.0269897282124,0.0125982807949,-0.557701051235,-0.155367314816,-9.7084312439,0.0,-0.0454233177006,-2.06491780281,0.484771579504,-0.557701051235,-0.155367314816,-9.7084312439,0.0601722076535,-0.0287297256291,0.00526121724397,-0.0635146871209,0.121043846011,0.436919361353,1019.92999268,-55.457359314,26.6899986267,0.0,0.0,0.0,0.0,0.613934218884,0.0,0.0,0.0,0.0,0.318523705006,0.0,0.0,0.0,10,0,0,20.0,1.02141547203,,,,,,,,,,,,,,,,,,,,-0.00382587919012,-0.015058754012,0.0055455728434,0.484771579504,0,2,0,1.0,0,0,0.0,0.0743589773774,0.484771579504,0.0247524753213,-1.0,0.776942372322,-0.998161792755,0.0,7,0,240.0,246.0,249.0,253.0,0.0,0.0,0.0,0.0,,,,0.0102605493739,-0.14282630384,0.0495687648654,0,0,0.0,0.0,4.32000017166,0,77,,,,,,,,,,,,,,,,,,,,,,,,,,,,,,,,,11.4399995804,11.8603658676,-1.0,-1.0,,,,,,,,,,,,,,,,,,,,,,,,,,,,,,,,,,,,,,,,,,,,,,,,,,,,,,,,,,,,,,,,,,,,,,,,,,,,,,,,,,,,,,,,,,,,,,,,,,,,,,,8374873,PX4FMU_V1,251760679a4bed86fdb10746062fde2cc23e460f,test,305419904.0
-0.000591701187659,-0.016412647441,-2.10730624199,-0.0516500473022,0.0348611958325,0.00684638787061,-0.958095550537,-0.382571935654,-10.2768878937,0.0,-0.0454233177006,-2.0639564991,0.497461915016,-0.958095550537,-0.382571935654,-10.2768878937,-0.0565335340798,0.0551954731345,0.00216356152669,-0.0791101381183,0.133527368307,0.441369891167,1019.94000244,-55.5401611328,26.6899986267,0.0,0.0,0.0,0.0,0.615381717682,0.0,0.0,0.0,0.0,0.318319261074,0.0,0.0,0.0,10,0,0,20.0,1.02153635025,,,,,,,,,,,,,,,,,,,,0.00757141085342,-0.023695608601,0.00849486608058,0.497461915016,0,2,0,1.0,0,0,0.0,0.0743589773774,0.497461915016,0.0222772285342,-1.0,0.776942372322,-0.998161792755,0.0,7,0,246.0,248.0,254.0,265.0,0.0,0.0,0.0,0.0,,,,0.0127980476245,-0.144840151072,0.0502198971808,8,0,-0.953184604645,0.0195772442967,4.32299995422,0,77,,,,,,,,,,,,,,,,,,,,,,,,,,,,,,,,,11.389714241,11.8594665527,-1.0,-1.0,,,,,,,,,,,,,,,,,,,,,,,,,,,,,,,,,,,,,,,,,,,,,,,,,,,,,,,,,,,,,,,,,,,,,,,,,,,,,,,,,,,,,,,,,,,,,,,,,,,,,,,8396284,PX4FMU_V1,251760679a4bed86fdb10746062fde2cc23e460f,test,305419904.0
-0.000553418591153,-0.0170486755669,-2.10805845261,0.0356301218271,-0.0534271039069,-0.0585285872221,0.269562572241,0.643822133541,-9.27137947083,0.0,-0.0454233177006,-2.06272912025,0.519035518169,0.269562572241,0.643822133541,-9.27137947083,0.0569753646851,-0.0486414283514,-0.0516372546554,-0.0708537399769,0.129366204143,0.446710556746,1019.98999023,-55.9541473389,26.6899986267,0.0,0.0,0.0,0.0,0.618737876415,0.0,0.0,0.0,0.0,0.319774448872,0.0,0.0,0.0,10,0,0,20.0,1.02165710926,,,,,,,,,,,,,,,,,,,,-0.0029346710071,-0.0114676868543,0.0167249031365,0.519035518169,0,2,0,1.0,0,0,0.0,0.0743589773774,0.519035518169,0.0247524753213,-1.0,0.776942372322,-0.998161792755,0.0,7,0,253.0,270.0,259.0,275.0,0.0,0.0,0.0,0.0,,,,0.0130557287484,-0.141640082002,0.0529707595706,0,0,0.0,0.0,4.32299995422,0,77,,,,,,,,,,,,,,,,,,,,,,,,,,,,,,,,,11.2891426086,11.8584012985,-1.0,-1.0,,,,,,,,,,,,,,,,,,,,,,,,,,,,,,,,,,,,,,,,,,,,,,,,,,,,,,,,,,,,,,,,,,,,,,,,,,,,,,,,,,,,,,,,,,,,,,,,,,,,,,,8418132,PX4FMU_V1,251760679a4bed86fdb10746062fde2cc23e460f,test,305419904.0
-0.000422424694989,-0.0170533210039,-2.10923528671,-0.0109733231366,0.0251894108951,-0.0446490719914,-0.309113204479,0.787729024887,-10.0508966446,0.0,-0.0454233177006,-2.06169676781,0.519035518169,-0.309113204479,0.787729024887,-10.0508966446,-0.0336417853832,0.0618872195482,-0.0271236505359,-0.0717710927129,0.132695138454,0.434249043465,1019.98999023,-55.9541473389,26.6899986267,0.0,0.0,0.0,0.0,0.622220158577,0.0,0.0,0.0,0.0,0.321035832167,0.0,0.0,0.0,10,0,0,20.0,1.02171623707,,,,,,,,,,,,,,,,,,,,0.00310378987342,-0.0216817837209,0.0149737996981,0.519035518169,0,2,0,1.0,0,0,0.0,0.0743589773774,0.519035518169,0.0247524753213,-1.0,0.776942372322,-0.998161792755,0.0,7,0,252.0,266.0,261.0,278.0,0.0,0.0,0.0,0.0,,,,0.0129019841552,-0.141593545675,0.0551762580872,-7,43,0.970165193081,-5.76749753952,4.32299995422,0,77,,,,,,,,,,,,,,,,,,,,,,,,,,,,,,,,,11.3478097916,11.8573465347,-1.0,-1.0,,,,,,,,,,,,,,,,,,,,,,,,,,,,,,,,,,,,,,,,,,,,,,,,,,,,,,,,,,,,,,,,,,,,,,,,,,,,,,,,,,,,,,,,,,,,,,,,,,,,,,,8439327,PX4FMU_V1,251760679a4bed86fdb10746062fde2cc23e460f,test,305419904.0
-0.00171583343763,-0.0158956088126,-2.11136889458,-0.0730449259281,0.0553504116833,-0.0214940235019,0.626653373241,0.478154599667,-10.2061634064,0.0,-0.0454233177006,-2.06054782867,0.534263968468,0.626653373241,0.478154599667,-10.2061634064,-0.0607540942729,0.0368770100176,-0.0246939826757,-0.0855318233371,0.130198433995,0.44493034482,1019.94995117,-55.622959137,26.6999988556,0.0,0.0,0.0,0.0,0.630724728107,0.0,0.0,0.0,0.0,0.323038548231,0.0,0.0,0.0,10,0,0,20.0,1.02183651924,,,,,,,,,,,,,,,,,,,,0.0121103608981,-0.0263504926115,0.0118726268411,0.534263968468,0,2,0,1.0,0,0,0.0,0.0743589773774,0.534263968468,0.0222772285342,-1.0,0.779448628426,-0.998161792755,0.0,7,0,262.0,268.0,270.0,288.0,0.0,0.0,0.0,0.0,,,,0.0201117023826,-0.147345691919,0.0576568171382,0,0,0.0,0.0,4.32299995422,0,77,,,,,,,,,,,,,,,,,,,,,,,,,,,,,,,,,11.3142852783,11.8563280106,-1.0,-1.0,,,,,,,,,,,,,,,,,,,,,,,,,,,,,,,,,,,,,,,,,,,,,,,,,,,,,,,,,,,,,,,,,,,,,,,,,,,,,,,,,,,,,,,,,,,,,,,,,,,,,,,8461848,PX4FMU_V1,251760679a4bed86fdb10746062fde2cc23e460f,test,305419904.0
-0.00171428907197,-0.0161727424711,-2.11219739914,0.0147549342364,-0.044948682189,-0.00855835713446,0.898090302944,0.137586340308,-9.2010011673,0.0,-0.0454233177006,-2.05961441994,0.53553301096,0.898090302944,0.137586340308,-9.2010011673,0.00331480614841,-0.0763959512115,-0.00867084227502,-0.0781927853823,0.127701729536,0.438699603081,1019.9699707,-55.7885551453,26.6999988556,0.0,0.0,0.0,0.0,0.634330272675,0.0,0.0,0.0,0.0,0.324581623077,0.0,0.0,0.0,10,0,0,20.0,1.02195668221,,,,,,,,,,,,,,,,,,,,0.000747322570533,-0.0131287900731,0.0101959127933,0.53553301096,0,2,0,1.0,0,0,0.0,0.0743589773774,0.53553301096,0.0222772285342,-1.0,0.776942372322,-0.998161792755,0.0,7,0,264.0,274.0,271.0,281.0,0.0,0.0,0.0,0.0,,,,0.0205035693944,-0.14593937993,0.0594143941998,-6,-33,0.861758947372,4.3632311821,4.32299995422,0,77,,,,,,,,,,,,,,,,,,,,,,,,,,,,,,,,,11.3394289017,11.8558111191,-1.0,-1.0,,,,,,,,,,,,,,,,,,,,,,,,,,,,,,,,,,,,,,,,,,,,,,,,,,,,,,,,,,,,,,,,,,,,,,,,,,,,,,,,,,,,,,,,,,,,,,,,,,,,,,,8482684,PX4FMU_V1,251760679a4bed86fdb10746062fde2cc23e460f,test,305419904.0
-0.00189699418843,-0.0162851233035,-2.11105275154,0.00988100655377,0.0196989160031,0.0276866201311,0.481800824404,0.0233086720109,-9.63222694397,0.0,-0.0438569970429,-2.05860519409,0.53553301096,0.481800824404,0.0233086720109,-9.63222694397,0.0249656625092,0.0555699169636,0.0204079002142,-0.0635146871209,0.130198433995,0.443150103092,1020.0,-56.0369415283,26.6899986267,0.0,0.0,0.0,0.0,0.640293717384,0.0,0.0,0.0,0.0,0.325353324413,0.0,0.0,0.0,10,0,0,20.0,1.02207648754,,,,,,,,,,,,,,,,,,,,0.00144235533662,-0.0204434338957,0.00485651055351,0.53553301096,0,2,0,1.0,0,0,0.0,0.0717948749661,0.53553301096,0.0247524753213,-1.0,0.779448628426,-0.998161792755,0.0,7,0,266.0,270.0,274.0,280.0,0.0,0.0,0.0,0.0,,,,0.0209760479629,-0.137558266521,0.0600633583963,0,0,0.0,0.0,4.32299995422,0,77,,,,,,,,,,,,,,,,,,,,,,,,,,,,,,,,,11.3645715714,11.8548116684,-1.0,-1.0,,,,,,,,,,,,,,,,,,,,,,,,,,,,,,,,,,,,,,,,,,,,,,,,,,,,,,,,,,,,,,,,,,,,,,,,,,,,,,,,,,,,,,,,,,,,,,,,,,,,,,,8503886,PX4FMU_V1,251760679a4bed86fdb10746062fde2cc23e460f,test,305419904.0
-0.00222901650704,-0.0163268912584,-2.11286449432,-0.0340421013534,-0.02741063945,-0.0345318838954,-0.917404651642,-0.707240641117,-9.30782985687,0.0,-0.0438569970429,-2.05745410919,0.53553301096,-0.917404651642,-0.707240641117,-9.30782985687,-0.0269463285804,-0.0554798021913,-0.058654833585,-0.0791101381183,0.12603725493,0.44493034482,1019.90997314,-55.291759491,26.6899986267,0.0,0.0,0.0,0.0,0.645963013172,0.0,0.0,0.0,0.0,0.322092622519,0.0,0.0,0.0,10,0,0,20.0,1.02219760418,,,,,,,,,,,,,,,,,,,,0.00745244231075,-0.0142874969169,0.0145155861974,0.53553301096,0,2,0,1.0,0,0,0.0,0.0717948749661,0.53553301096,0.0222772285342,-1.0,0.776942372322,-0.996323525906,0.0,7,0,264.0,273.0,269.0,285.0,0.0,0.0,0.0,0.0,,,,0.0232843793929,-0.137314468622,0.0622386857867,0,0,0.0,0.0,4.32299995422,0,77,,,,,,,,,,,,,,,,,,,,,,,,,,,,,,,,,11.3813333511,11.8538398743,-1.0,-1.0,,,,,,,,,,,,,,,,,,,,,,,,,,,,,,,,,,,,,,,,,,,,,,,,,,,,,,,,,,,,,,,,,,,,,,,,,,,,,,,,,,,,,,,,,,,,,,,,,,,,,,,8526258,PX4FMU_V1,251760679a4bed86fdb10746062fde2cc23e460f,test,305419904.0
-0.00222277967259,-0.0166464652866,-2.11437487602,-0.005249355454,-0.0012767710723,-0.0470317155123,-1.36441850662,-0.687565922737,-9.45261192322,0.0,-0.0422906763852,-2.05642271042,0.534263968468,-1.36441850662,-0.687565922737,-9.45261192322,-0.0100491046906,0.0364374108613,-0.0514691472054,-0.0763580128551,0.123540557921,0.435139149427,1019.90997314,-55.291759491,26.6899986267,0.0,0.0,0.0,0.0,0.645391225815,0.0,0.0,0.0,0.0,0.327207744122,0.0,0.0,0.0,10,0,0,20.0,1.02225768566,,,,,,,,,,,,,,,,,,,,0.00371876196004,-0.0164566747844,0.0168891046196,0.534263968468,0,2,0,1.0,0,0,0.0,0.0692307725549,0.534263968468,0.0247524753213,-1.0,0.776942372322,-0.998161792755,0.0,7,0,261.0,276.0,266.0,285.0,0.0,0.0,0.0,0.0,,,,0.023356506601,-0.127866581082,0.0655623078346,0,0,0.0,0.0,4.32299995422,0,77,,,,,,,,,,,,,,,,,,,,,,,,,,,,,,,,,11.3813333511,11.8528871536,-1.0,-1.0,,,,,,,,,,,,,,,,,,,,,,,,,,,,,,,,,,,,,,,,,,,,,,,,,,,,,,,,,,,,,,,,,,,,,,,,,,,,,,,,,,,,,,,,,,,,,,,,,,,,,,,8547286,PX4FMU_V1,251760679a4bed86fdb10746062fde2cc23e460f,test,305419904.0
-0.0018189890543,-0.0159003734589,-2.11600470543,0.0467399805784,0.0292838234454,-0.0435518100858,-1.08923280239,-0.0752668008208,-9.78975009918,0.0,-0.0438569970429,-2.05546212196,0.53553301096,-1.08923280239,-0.0752668008208,-9.78975009918,0.061878208071,0.0125347049907,-0.0353584960103,-0.0754406303167,0.133527368307,0.447600632906,1019.91998291,-55.3745613098,26.6899986267,0.0,0.0,0.0,0.0,0.64634013176,0.0,0.0,0.0,0.0,0.326062351465,0.0,0.0,0.0,10,0,0,20.0,1.02237701416,,,,,,,,,,,,,,,,,,,,-0.00316965114325,-0.0219265371561,0.0166375301778,0.53553301096,0,2,0,1.0,0,0,0.0,0.0717948749661,0.53553301096,0.0222772285342,-1.0,0.776942372322,-0.998161792755,0.0,7,0,258.0,276.0,271.0,286.0,0.0,0.0,0.0,0.0,,,,0.0223580487072,-0.139381855726,0.0673650503159,0,0,0.0,0.0,4.32299995422,0,77,,,,,,,,,,,,,,,,,,,,,,,,,,,,,,,,,11.3729524612,11.8524074554,-1.0,-1.0,,,,,,,,,,,,,,,,,,,,,,,,,,,,,,,,,,,,,,,,,,,,,,,,,,,,,,,,,,,,,,,,,,,,,,,,,,,,,,,,,,,,,,,,,,,,,,,,,,,,,,,8568433,PX4FMU_V1,251760679a4bed86fdb10746062fde2cc23e460f,test,305419904.0
-0.00103492231574,-0.0166658256203,-2.11723875999,0.0475020110607,-0.0523492768407,-0.040997993201,0.552542567253,0.318005114794,-9.57812786102,0.0,-0.0422906763852,-2.05432367325,0.536802053452,0.552542567253,0.318005114794,-9.57812786102,0.0571373142302,-0.0302361994982,-0.0244287606329,-0.0681015923619,0.121876083314,0.441369891167,1019.95996094,-55.7057571411,26.6899986267,0.0,0.0,0.0,0.0,0.648131132126,0.0,0.0,0.0,0.0,0.317715644836,0.0,0.0,0.0,10,0,0,20.0,1.02249717712,,,,,,,,,,,,,,,,,,,,-0.00377470813692,-0.0097964014858,0.0166127067059,0.536802053452,0,2,0,1.0,0,0,0.0,0.0692307725549,0.536802053452,0.0222772285342,-1.0,0.776942372322,-0.998161792755,0.0,7,0,261.0,281.0,266.0,285.0,0.0,0.0,0.0,0.0,,,,0.0184657927603,-0.127706214786,0.0697533786297,8,-23,-0.961374878883,2.62765192986,4.32299995422,0,77,,,,,,,,,,,,,,,,,,,,,,,,,,,,,,,,,11.3729524612,11.8514242172,-1.0,-1.0,,,,,,,,,,,,,,,,,,,,,,,,,,,,,,,,,,,,,,,,,,,,,,,,,,,,,,,,,,,,,,,,,,,,,,,,,,,,,,,,,,,,,,,,,,,,,,,,,,,,,,,8590424,PX4FMU_V1,251760679a4bed86fdb10746062fde2cc23e460f,test,305419904.0
